#
# Results on Fri, 18 Apr 2025 15:29:24 GMT
# USER AGENT: Mozilla/5.0 (Windows NT 10.0; Win64; x64) AppleWebKit/537.36 (KHTML, like Gecko) Chrome/135.0.0.0 Safari/537.36
# Design number was non-random = 1
#
# Columns below this comment are as follows:
# 1. Results reception time.
# 2. MD5 hash of participant's IP address.
# 3. Controller name.
# 4. Order number of item.
# 5. Inner element number.
# 6. Label.
# 7. Latin Square Group.
# 8. PennElementType.
# 9. PennElementName.
# 10. Parameter.
# 11. Value.
# 12. EventTime.
# 13. correctAnswer.
# 14. condition.
# 15. answer.
# 16. question.
# 17. conj2.
# 18. conj1.
# 19. type.
# 20. sentence.
# 21. trialNum.
# 22. itemNum.
# 23. completionCode.
# 24. Comments.
1744990164,f7687c85e12cb15e1ecb989eac8fd70d,PennController,3,0,instructions,NULL,PennController,0,_Trial_,Start,1744988672938,undefined,undefined,undefined,undefined,undefined,undefined,undefined,undefined,undefined,undefined,CO994419,NULL
1744990164,f7687c85e12cb15e1ecb989eac8fd70d,PennController,3,0,instructions,NULL,PennController,0,_Header_,Start,1744988672939,undefined,undefined,undefined,undefined,undefined,undefined,undefined,undefined,undefined,undefined,CO994419,NULL
1744990164,f7687c85e12cb15e1ecb989eac8fd70d,PennController,3,0,instructions,NULL,PennController,0,_Header_,End,1744988672943,undefined,undefined,undefined,undefined,undefined,undefined,undefined,undefined,undefined,undefined,CO994419,NULL
1744990164,f7687c85e12cb15e1ecb989eac8fd70d,PennController,3,0,instructions,NULL,PennController,0,_Trial_,End,1744988874065,undefined,undefined,undefined,undefined,undefined,undefined,undefined,undefined,undefined,undefined,CO994419,NULL
1744990164,f7687c85e12cb15e1ecb989eac8fd70d,PennController,4,0,demo,NULL,PennController,1,_Trial_,Start,1744988874069,undefined,undefined,undefined,undefined,undefined,undefined,undefined,undefined,undefined,undefined,CO994419,NULL
1744990164,f7687c85e12cb15e1ecb989eac8fd70d,PennController,4,0,demo,NULL,PennController,1,_Header_,Start,1744988874069,undefined,undefined,undefined,undefined,undefined,undefined,undefined,undefined,undefined,undefined,CO994419,NULL
1744990164,f7687c85e12cb15e1ecb989eac8fd70d,PennController,4,0,demo,NULL,PennController,1,_Header_,End,1744988874069,undefined,undefined,undefined,undefined,undefined,undefined,undefined,undefined,undefined,undefined,CO994419,NULL
1744990164,f7687c85e12cb15e1ecb989eac8fd70d,PennController,4,0,demo,NULL,TextInput,age,First,,1744988876494,undefined,undefined,undefined,undefined,undefined,undefined,undefined,undefined,undefined,undefined,CO994419,3
1744990164,f7687c85e12cb15e1ecb989eac8fd70d,PennController,4,0,demo,NULL,TextInput,language,First,,1744988877521,undefined,undefined,undefined,undefined,undefined,undefined,undefined,undefined,undefined,undefined,CO994419,CapsLock
1744990164,f7687c85e12cb15e1ecb989eac8fd70d,PennController,4,0,demo,NULL,TextInput,otherlg,First,,1744988879910,undefined,undefined,undefined,undefined,undefined,undefined,undefined,undefined,undefined,undefined,CO994419,CapsLock
1744990164,f7687c85e12cb15e1ecb989eac8fd70d,PennController,4,0,demo,NULL,TextInput,school,First,,1744988885745,undefined,undefined,undefined,undefined,undefined,undefined,undefined,undefined,undefined,undefined,CO994419,CapsLock
1744990164,f7687c85e12cb15e1ecb989eac8fd70d,PennController,4,0,demo,NULL,TextInput,age,Final,31,1744988910264,undefined,undefined,undefined,undefined,undefined,undefined,undefined,undefined,undefined,undefined,CO994419,NULL
1744990164,f7687c85e12cb15e1ecb989eac8fd70d,PennController,4,0,demo,NULL,TextInput,language,Final,Türkçe,1744988910265,undefined,undefined,undefined,undefined,undefined,undefined,undefined,undefined,undefined,undefined,CO994419,NULL
1744990164,f7687c85e12cb15e1ecb989eac8fd70d,PennController,4,0,demo,NULL,TextInput,otherlg,Final,Türkçe İngilizce,1744988910266,undefined,undefined,undefined,undefined,undefined,undefined,undefined,undefined,undefined,undefined,CO994419,NULL
1744990164,f7687c85e12cb15e1ecb989eac8fd70d,PennController,4,0,demo,NULL,TextInput,school,Final,Yüksek lisans,1744988910267,undefined,undefined,undefined,undefined,undefined,undefined,undefined,undefined,undefined,undefined,CO994419,NULL
1744990164,f7687c85e12cb15e1ecb989eac8fd70d,PennController,4,0,demo,NULL,PennController,1,_Trial_,End,1744988910269,undefined,undefined,undefined,undefined,undefined,undefined,undefined,undefined,undefined,undefined,CO994419,NULL
1744990164,f7687c85e12cb15e1ecb989eac8fd70d,PennController,5,0,practice1,NULL,PennController,2,_Trial_,Start,1744988910274,undefined,undefined,undefined,undefined,undefined,undefined,undefined,undefined,undefined,undefined,CO994419,NULL
1744990164,f7687c85e12cb15e1ecb989eac8fd70d,PennController,5,0,practice1,NULL,PennController,2,_Header_,Start,1744988910274,undefined,undefined,undefined,undefined,undefined,undefined,undefined,undefined,undefined,undefined,CO994419,NULL
1744990164,f7687c85e12cb15e1ecb989eac8fd70d,PennController,5,0,practice1,NULL,PennController,2,_Header_,End,1744988910275,undefined,undefined,undefined,undefined,undefined,undefined,undefined,undefined,undefined,undefined,CO994419,NULL
1744990164,f7687c85e12cb15e1ecb989eac8fd70d,PennController,5,0,practice1,NULL,Text,Hizmetçi merdiveni duvara yasladı ama bu pek güvenli değildi.,Print,NA,1744988910276,undefined,undefined,undefined,undefined,undefined,undefined,undefined,undefined,undefined,undefined,CO994419,NULL
1744990164,f7687c85e12cb15e1ecb989eac8fd70d,PennController,5,0,practice1,NULL,Scale,scale,Choice,iyi,1744988922555,undefined,undefined,undefined,undefined,undefined,undefined,undefined,undefined,undefined,undefined,CO994419,NULL
1744990164,f7687c85e12cb15e1ecb989eac8fd70d,PennController,5,0,practice1,NULL,PennController,2,_Trial_,End,1744988930503,undefined,undefined,undefined,undefined,undefined,undefined,undefined,undefined,undefined,undefined,CO994419,NULL
1744990164,f7687c85e12cb15e1ecb989eac8fd70d,PennController,6,0,practice2,NULL,PennController,3,_Trial_,Start,1744988930504,undefined,undefined,undefined,undefined,undefined,undefined,undefined,undefined,undefined,undefined,CO994419,NULL
1744990164,f7687c85e12cb15e1ecb989eac8fd70d,PennController,6,0,practice2,NULL,PennController,3,_Header_,Start,1744988930504,undefined,undefined,undefined,undefined,undefined,undefined,undefined,undefined,undefined,undefined,CO994419,NULL
1744990164,f7687c85e12cb15e1ecb989eac8fd70d,PennController,6,0,practice2,NULL,PennController,3,_Header_,End,1744988930504,undefined,undefined,undefined,undefined,undefined,undefined,undefined,undefined,undefined,undefined,CO994419,NULL
1744990164,f7687c85e12cb15e1ecb989eac8fd70d,PennController,6,0,practice2,NULL,Text,Köyü ziyaret eden belediye başkanı asla beğenmiş.,Print,NA,1744988930505,undefined,undefined,undefined,undefined,undefined,undefined,undefined,undefined,undefined,undefined,CO994419,NULL
1744990164,f7687c85e12cb15e1ecb989eac8fd70d,PennController,6,0,practice2,NULL,Scale,scale,Choice,oldukça kötü,1744988936643,undefined,undefined,undefined,undefined,undefined,undefined,undefined,undefined,undefined,undefined,CO994419,NULL
1744990164,f7687c85e12cb15e1ecb989eac8fd70d,PennController,6,0,practice2,NULL,PennController,3,_Trial_,End,1744989010514,undefined,undefined,undefined,undefined,undefined,undefined,undefined,undefined,undefined,undefined,CO994419,NULL
1744990164,f7687c85e12cb15e1ecb989eac8fd70d,PennController,7,0,practice3,NULL,PennController,4,_Trial_,Start,1744989010515,undefined,undefined,undefined,undefined,undefined,undefined,undefined,undefined,undefined,undefined,CO994419,NULL
1744990164,f7687c85e12cb15e1ecb989eac8fd70d,PennController,7,0,practice3,NULL,PennController,4,_Header_,Start,1744989010515,undefined,undefined,undefined,undefined,undefined,undefined,undefined,undefined,undefined,undefined,CO994419,NULL
1744990164,f7687c85e12cb15e1ecb989eac8fd70d,PennController,7,0,practice3,NULL,PennController,4,_Header_,End,1744989010515,undefined,undefined,undefined,undefined,undefined,undefined,undefined,undefined,undefined,undefined,CO994419,NULL
1744990164,f7687c85e12cb15e1ecb989eac8fd70d,PennController,7,0,practice3,NULL,Text,Harabeler onarılmaya dün çalışıldı.,Print,NA,1744989010516,undefined,undefined,undefined,undefined,undefined,undefined,undefined,undefined,undefined,undefined,CO994419,NULL
1744990164,f7687c85e12cb15e1ecb989eac8fd70d,PennController,7,0,practice3,NULL,Scale,scale,Choice,kötü,1744989023093,undefined,undefined,undefined,undefined,undefined,undefined,undefined,undefined,undefined,undefined,CO994419,NULL
1744990164,f7687c85e12cb15e1ecb989eac8fd70d,PennController,7,0,practice3,NULL,PennController,4,_Trial_,End,1744989026143,undefined,undefined,undefined,undefined,undefined,undefined,undefined,undefined,undefined,undefined,CO994419,NULL
1744990164,f7687c85e12cb15e1ecb989eac8fd70d,PennController,8,0,break,NULL,PennController,5,_Trial_,Start,1744989026145,undefined,undefined,undefined,undefined,undefined,undefined,undefined,undefined,undefined,undefined,CO994419,NULL
1744990164,f7687c85e12cb15e1ecb989eac8fd70d,PennController,8,0,break,NULL,PennController,5,_Header_,Start,1744989026145,undefined,undefined,undefined,undefined,undefined,undefined,undefined,undefined,undefined,undefined,CO994419,NULL
1744990164,f7687c85e12cb15e1ecb989eac8fd70d,PennController,8,0,break,NULL,PennController,5,_Header_,End,1744989026145,undefined,undefined,undefined,undefined,undefined,undefined,undefined,undefined,undefined,undefined,CO994419,NULL
1744990164,f7687c85e12cb15e1ecb989eac8fd70d,PennController,8,0,break,NULL,PennController,5,_Trial_,End,1744989035517,undefined,undefined,undefined,undefined,undefined,undefined,undefined,undefined,undefined,undefined,CO994419,NULL
1744990164,f7687c85e12cb15e1ecb989eac8fd70d,PennController,23,0,filler,NULL,PennController,21,_Trial_,Start,1744989035517,,ungram,undefined,,,,filler,Kütüphaneciden öğrenciye çalışma salonunda sabahladığını duyuldu.,1,115,CO994419,NULL
1744990164,f7687c85e12cb15e1ecb989eac8fd70d,PennController,23,0,filler,NULL,PennController,21,_Header_,Start,1744989035517,,ungram,undefined,,,,filler,Kütüphaneciden öğrenciye çalışma salonunda sabahladığını duyuldu.,1,115,CO994419,NULL
1744990164,f7687c85e12cb15e1ecb989eac8fd70d,PennController,23,0,filler,NULL,PennController,21,_Header_,End,1744989035518,,ungram,undefined,,,,filler,Kütüphaneciden öğrenciye çalışma salonunda sabahladığını duyuldu.,1,115,CO994419,NULL
1744990164,f7687c85e12cb15e1ecb989eac8fd70d,PennController,23,0,filler,NULL,Text,Kütüphaneciden öğrenciye çalışma salonunda sabahladığını duyuldu.,Print,NA,1744989035518,,ungram,undefined,,,,filler,Kütüphaneciden öğrenciye çalışma salonunda sabahladığını duyuldu.,1,115,CO994419,NULL
1744990164,f7687c85e12cb15e1ecb989eac8fd70d,PennController,23,0,filler,NULL,Scale,scale,Choice,oldukça kötü,1744989054407,,ungram,undefined,,,,filler,Kütüphaneciden öğrenciye çalışma salonunda sabahladığını duyuldu.,1,115,CO994419,NULL
1744990164,f7687c85e12cb15e1ecb989eac8fd70d,PennController,23,0,filler,NULL,PennController,21,_Trial_,End,1744989055404,,ungram,undefined,,,,filler,Kütüphaneciden öğrenciye çalışma salonunda sabahladığını duyuldu.,1,115,CO994419,NULL
1744990164,f7687c85e12cb15e1ecb989eac8fd70d,PennController,103,0,exp,NULL,PennController,101,_Trial_,Start,1744989055405,,d,undefined,,pantolon,gömlek,exp,Tülay sonbahar koleksiyonu için gömlekli ve pantolonlu bir kombin hazırladı.,2,31,CO994419,NULL
1744990164,f7687c85e12cb15e1ecb989eac8fd70d,PennController,103,0,exp,NULL,PennController,101,_Header_,Start,1744989055405,,d,undefined,,pantolon,gömlek,exp,Tülay sonbahar koleksiyonu için gömlekli ve pantolonlu bir kombin hazırladı.,2,31,CO994419,NULL
1744990164,f7687c85e12cb15e1ecb989eac8fd70d,PennController,103,0,exp,NULL,PennController,101,_Header_,End,1744989055405,,d,undefined,,pantolon,gömlek,exp,Tülay sonbahar koleksiyonu için gömlekli ve pantolonlu bir kombin hazırladı.,2,31,CO994419,NULL
1744990164,f7687c85e12cb15e1ecb989eac8fd70d,PennController,103,0,exp,NULL,Text,Tülay sonbahar koleksiyonu için gömlekli ve pantolonlu bir kombin hazırladı.,Print,NA,1744989055405,,d,undefined,,pantolon,gömlek,exp,Tülay sonbahar koleksiyonu için gömlekli ve pantolonlu bir kombin hazırladı.,2,31,CO994419,NULL
1744990164,f7687c85e12cb15e1ecb989eac8fd70d,PennController,103,0,exp,NULL,Scale,scale,Choice,oldukça iyi,1744989072762,,d,undefined,,pantolon,gömlek,exp,Tülay sonbahar koleksiyonu için gömlekli ve pantolonlu bir kombin hazırladı.,2,31,CO994419,NULL
1744990164,f7687c85e12cb15e1ecb989eac8fd70d,PennController,103,0,exp,NULL,PennController,101,_Trial_,End,1744989073789,,d,undefined,,pantolon,gömlek,exp,Tülay sonbahar koleksiyonu için gömlekli ve pantolonlu bir kombin hazırladı.,2,31,CO994419,NULL
1744990164,f7687c85e12cb15e1ecb989eac8fd70d,PennController,27,0,filler,NULL,PennController,25,_Trial_,Start,1744989073791,,ungram,undefined,,,,filler,Geminin limana yanaşmak için yavaşlamalıyım.,3,119,CO994419,NULL
1744990164,f7687c85e12cb15e1ecb989eac8fd70d,PennController,27,0,filler,NULL,PennController,25,_Header_,Start,1744989073791,,ungram,undefined,,,,filler,Geminin limana yanaşmak için yavaşlamalıyım.,3,119,CO994419,NULL
1744990164,f7687c85e12cb15e1ecb989eac8fd70d,PennController,27,0,filler,NULL,PennController,25,_Header_,End,1744989073792,,ungram,undefined,,,,filler,Geminin limana yanaşmak için yavaşlamalıyım.,3,119,CO994419,NULL
1744990164,f7687c85e12cb15e1ecb989eac8fd70d,PennController,27,0,filler,NULL,Text,Geminin limana yanaşmak için yavaşlamalıyım.,Print,NA,1744989073792,,ungram,undefined,,,,filler,Geminin limana yanaşmak için yavaşlamalıyım.,3,119,CO994419,NULL
1744990164,f7687c85e12cb15e1ecb989eac8fd70d,PennController,27,0,filler,NULL,Scale,scale,Choice,oldukça kötü,1744989077368,,ungram,undefined,,,,filler,Geminin limana yanaşmak için yavaşlamalıyım.,3,119,CO994419,NULL
1744990164,f7687c85e12cb15e1ecb989eac8fd70d,PennController,27,0,filler,NULL,PennController,25,_Trial_,End,1744989078061,,ungram,undefined,,,,filler,Geminin limana yanaşmak için yavaşlamalıyım.,3,119,CO994419,NULL
1744990164,f7687c85e12cb15e1ecb989eac8fd70d,PennController,67,0,filler,NULL,PennController,65,_Trial_,Start,1744989078062,,gram,undefined,,,,filler,Nejla çizim ve boyama öğrenmek için yeni bir kursa kaydoldu.,4,235,CO994419,NULL
1744990164,f7687c85e12cb15e1ecb989eac8fd70d,PennController,67,0,filler,NULL,PennController,65,_Header_,Start,1744989078062,,gram,undefined,,,,filler,Nejla çizim ve boyama öğrenmek için yeni bir kursa kaydoldu.,4,235,CO994419,NULL
1744990164,f7687c85e12cb15e1ecb989eac8fd70d,PennController,67,0,filler,NULL,PennController,65,_Header_,End,1744989078062,,gram,undefined,,,,filler,Nejla çizim ve boyama öğrenmek için yeni bir kursa kaydoldu.,4,235,CO994419,NULL
1744990164,f7687c85e12cb15e1ecb989eac8fd70d,PennController,67,0,filler,NULL,Text,Nejla çizim ve boyama öğrenmek için yeni bir kursa kaydoldu.,Print,NA,1744989078063,,gram,undefined,,,,filler,Nejla çizim ve boyama öğrenmek için yeni bir kursa kaydoldu.,4,235,CO994419,NULL
1744990164,f7687c85e12cb15e1ecb989eac8fd70d,PennController,67,0,filler,NULL,Scale,scale,Choice,oldukça iyi,1744989083031,,gram,undefined,,,,filler,Nejla çizim ve boyama öğrenmek için yeni bir kursa kaydoldu.,4,235,CO994419,NULL
1744990164,f7687c85e12cb15e1ecb989eac8fd70d,PennController,67,0,filler,NULL,PennController,65,_Trial_,End,1744989083662,,gram,undefined,,,,filler,Nejla çizim ve boyama öğrenmek için yeni bir kursa kaydoldu.,4,235,CO994419,NULL
1744990164,f7687c85e12cb15e1ecb989eac8fd70d,PennController,102,0,exp,NULL,PennController,100,_Trial_,Start,1744989083663,,e,undefined,,düğün,cenaze,exp,Asuman dergi yazısı için düğün ve cenazesiz bir program önerdi.,5,30,CO994419,NULL
1744990164,f7687c85e12cb15e1ecb989eac8fd70d,PennController,102,0,exp,NULL,PennController,100,_Header_,Start,1744989083663,,e,undefined,,düğün,cenaze,exp,Asuman dergi yazısı için düğün ve cenazesiz bir program önerdi.,5,30,CO994419,NULL
1744990164,f7687c85e12cb15e1ecb989eac8fd70d,PennController,102,0,exp,NULL,PennController,100,_Header_,End,1744989083663,,e,undefined,,düğün,cenaze,exp,Asuman dergi yazısı için düğün ve cenazesiz bir program önerdi.,5,30,CO994419,NULL
1744990164,f7687c85e12cb15e1ecb989eac8fd70d,PennController,102,0,exp,NULL,Text,Asuman dergi yazısı için düğün ve cenazesiz bir program önerdi.,Print,NA,1744989083663,,e,undefined,,düğün,cenaze,exp,Asuman dergi yazısı için düğün ve cenazesiz bir program önerdi.,5,30,CO994419,NULL
1744990164,f7687c85e12cb15e1ecb989eac8fd70d,PennController,102,0,exp,NULL,Scale,scale,Choice,kötü sayılır,1744989091473,,e,undefined,,düğün,cenaze,exp,Asuman dergi yazısı için düğün ve cenazesiz bir program önerdi.,5,30,CO994419,NULL
1744990164,f7687c85e12cb15e1ecb989eac8fd70d,PennController,102,0,exp,NULL,PennController,100,_Trial_,End,1744989092136,,e,undefined,,düğün,cenaze,exp,Asuman dergi yazısı için düğün ve cenazesiz bir program önerdi.,5,30,CO994419,NULL
1744990164,f7687c85e12cb15e1ecb989eac8fd70d,PennController,45,0,filler,NULL,PennController,43,_Trial_,Start,1744989092137,,gram,undefined,,,,filler,Selin televizyona ve tablete internet bağlamakta sorun yaşıyor.,6,213,CO994419,NULL
1744990164,f7687c85e12cb15e1ecb989eac8fd70d,PennController,45,0,filler,NULL,PennController,43,_Header_,Start,1744989092137,,gram,undefined,,,,filler,Selin televizyona ve tablete internet bağlamakta sorun yaşıyor.,6,213,CO994419,NULL
1744990164,f7687c85e12cb15e1ecb989eac8fd70d,PennController,45,0,filler,NULL,PennController,43,_Header_,End,1744989092138,,gram,undefined,,,,filler,Selin televizyona ve tablete internet bağlamakta sorun yaşıyor.,6,213,CO994419,NULL
1744990164,f7687c85e12cb15e1ecb989eac8fd70d,PennController,45,0,filler,NULL,Text,Selin televizyona ve tablete internet bağlamakta sorun yaşıyor.,Print,NA,1744989092139,,gram,undefined,,,,filler,Selin televizyona ve tablete internet bağlamakta sorun yaşıyor.,6,213,CO994419,NULL
1744990164,f7687c85e12cb15e1ecb989eac8fd70d,PennController,45,0,filler,NULL,Scale,scale,Choice,iyi,1744989172276,,gram,undefined,,,,filler,Selin televizyona ve tablete internet bağlamakta sorun yaşıyor.,6,213,CO994419,NULL
1744990164,f7687c85e12cb15e1ecb989eac8fd70d,PennController,45,0,filler,NULL,PennController,43,_Trial_,End,1744989173590,,gram,undefined,,,,filler,Selin televizyona ve tablete internet bağlamakta sorun yaşıyor.,6,213,CO994419,NULL
1744990164,f7687c85e12cb15e1ecb989eac8fd70d,PennController,33,0,filler,NULL,PennController,31,_Trial_,Start,1744989173591,Evet,gram,undefined,Cümlede 'akraba' kelimesi geçti mi?,,,filler,Doğum günü partisine arkadaşlarını ve akrabalarını çağırdılar.,7,201,CO994419,NULL
1744990164,f7687c85e12cb15e1ecb989eac8fd70d,PennController,33,0,filler,NULL,PennController,31,_Header_,Start,1744989173591,Evet,gram,undefined,Cümlede 'akraba' kelimesi geçti mi?,,,filler,Doğum günü partisine arkadaşlarını ve akrabalarını çağırdılar.,7,201,CO994419,NULL
1744990164,f7687c85e12cb15e1ecb989eac8fd70d,PennController,33,0,filler,NULL,PennController,31,_Header_,End,1744989173591,Evet,gram,undefined,Cümlede 'akraba' kelimesi geçti mi?,,,filler,Doğum günü partisine arkadaşlarını ve akrabalarını çağırdılar.,7,201,CO994419,NULL
1744990164,f7687c85e12cb15e1ecb989eac8fd70d,PennController,33,0,filler,NULL,Text,Doğum günü partisine arkadaşlarını ve akrabalarını çağırdılar.,Print,NA,1744989173591,Evet,gram,undefined,Cümlede 'akraba' kelimesi geçti mi?,,,filler,Doğum günü partisine arkadaşlarını ve akrabalarını çağırdılar.,7,201,CO994419,NULL
1744990164,f7687c85e12cb15e1ecb989eac8fd70d,PennController,33,0,filler,NULL,Scale,scale,Choice,oldukça iyi,1744989177922,Evet,gram,undefined,Cümlede 'akraba' kelimesi geçti mi?,,,filler,Doğum günü partisine arkadaşlarını ve akrabalarını çağırdılar.,7,201,CO994419,NULL
1744990164,f7687c85e12cb15e1ecb989eac8fd70d,PennController,33,0,filler,NULL,Text,questionasked,Print,NA,1744989178719,Evet,gram,undefined,Cümlede 'akraba' kelimesi geçti mi?,,,filler,Doğum günü partisine arkadaşlarını ve akrabalarını çağırdılar.,7,201,CO994419,NULL
1744990164,f7687c85e12cb15e1ecb989eac8fd70d,PennController,33,0,filler,NULL,Scale,answer,Choice,Evet,1744989181557,Evet,gram,undefined,Cümlede 'akraba' kelimesi geçti mi?,,,filler,Doğum günü partisine arkadaşlarını ve akrabalarını çağırdılar.,7,201,CO994419,NULL
1744990164,f7687c85e12cb15e1ecb989eac8fd70d,PennController,33,0,filler,NULL,Scale,answer,Evet,checked,1744989182240,Evet,gram,undefined,Cümlede 'akraba' kelimesi geçti mi?,,,filler,Doğum günü partisine arkadaşlarını ve akrabalarını çağırdılar.,7,201,CO994419,Status
1744990164,f7687c85e12cb15e1ecb989eac8fd70d,PennController,33,0,filler,NULL,Scale,answer,Hayir,unchecked,1744989182240,Evet,gram,undefined,Cümlede 'akraba' kelimesi geçti mi?,,,filler,Doğum günü partisine arkadaşlarını ve akrabalarını çağırdılar.,7,201,CO994419,Status
1744990164,f7687c85e12cb15e1ecb989eac8fd70d,PennController,33,0,filler,NULL,PennController,31,_Trial_,End,1744989182240,Evet,gram,undefined,Cümlede 'akraba' kelimesi geçti mi?,,,filler,Doğum günü partisine arkadaşlarını ve akrabalarını çağırdılar.,7,201,CO994419,NULL
1744990164,f7687c85e12cb15e1ecb989eac8fd70d,PennController,85,0,exp,NULL,PennController,83,_Trial_,Start,1744989182241,,f,undefined,,köy,şehir,exp,Emin geçen tatilde şehirsiz ve köysüz bir gezi yaptı.,8,13,CO994419,NULL
1744990164,f7687c85e12cb15e1ecb989eac8fd70d,PennController,85,0,exp,NULL,PennController,83,_Header_,Start,1744989182241,,f,undefined,,köy,şehir,exp,Emin geçen tatilde şehirsiz ve köysüz bir gezi yaptı.,8,13,CO994419,NULL
1744990164,f7687c85e12cb15e1ecb989eac8fd70d,PennController,85,0,exp,NULL,PennController,83,_Header_,End,1744989182242,,f,undefined,,köy,şehir,exp,Emin geçen tatilde şehirsiz ve köysüz bir gezi yaptı.,8,13,CO994419,NULL
1744990164,f7687c85e12cb15e1ecb989eac8fd70d,PennController,85,0,exp,NULL,Text,Emin geçen tatilde şehirsiz ve köysüz bir gezi yaptı.,Print,NA,1744989182242,,f,undefined,,köy,şehir,exp,Emin geçen tatilde şehirsiz ve köysüz bir gezi yaptı.,8,13,CO994419,NULL
1744990164,f7687c85e12cb15e1ecb989eac8fd70d,PennController,85,0,exp,NULL,Scale,scale,Choice,iyi sayılır,1744989190488,,f,undefined,,köy,şehir,exp,Emin geçen tatilde şehirsiz ve köysüz bir gezi yaptı.,8,13,CO994419,NULL
1744990164,f7687c85e12cb15e1ecb989eac8fd70d,PennController,85,0,exp,NULL,PennController,83,_Trial_,End,1744989199321,,f,undefined,,köy,şehir,exp,Emin geçen tatilde şehirsiz ve köysüz bir gezi yaptı.,8,13,CO994419,NULL
1744990164,f7687c85e12cb15e1ecb989eac8fd70d,PennController,52,0,filler,NULL,PennController,50,_Trial_,Start,1744989199322,,gram,undefined,,,,filler,Umut son olaylardan sonra saygılı ve ileri görüşlü velilerden bu tepkiyi beklemiyordu.,9,220,CO994419,NULL
1744990164,f7687c85e12cb15e1ecb989eac8fd70d,PennController,52,0,filler,NULL,PennController,50,_Header_,Start,1744989199322,,gram,undefined,,,,filler,Umut son olaylardan sonra saygılı ve ileri görüşlü velilerden bu tepkiyi beklemiyordu.,9,220,CO994419,NULL
1744990164,f7687c85e12cb15e1ecb989eac8fd70d,PennController,52,0,filler,NULL,PennController,50,_Header_,End,1744989199322,,gram,undefined,,,,filler,Umut son olaylardan sonra saygılı ve ileri görüşlü velilerden bu tepkiyi beklemiyordu.,9,220,CO994419,NULL
1744990164,f7687c85e12cb15e1ecb989eac8fd70d,PennController,52,0,filler,NULL,Text,Umut son olaylardan sonra saygılı ve ileri görüşlü velilerden bu tepkiyi beklemiyordu.,Print,NA,1744989199323,,gram,undefined,,,,filler,Umut son olaylardan sonra saygılı ve ileri görüşlü velilerden bu tepkiyi beklemiyordu.,9,220,CO994419,NULL
1744990164,f7687c85e12cb15e1ecb989eac8fd70d,PennController,52,0,filler,NULL,Scale,scale,Choice,oldukça iyi,1744989236465,,gram,undefined,,,,filler,Umut son olaylardan sonra saygılı ve ileri görüşlü velilerden bu tepkiyi beklemiyordu.,9,220,CO994419,NULL
1744990164,f7687c85e12cb15e1ecb989eac8fd70d,PennController,52,0,filler,NULL,PennController,50,_Trial_,End,1744989237701,,gram,undefined,,,,filler,Umut son olaylardan sonra saygılı ve ileri görüşlü velilerden bu tepkiyi beklemiyordu.,9,220,CO994419,NULL
1744990164,f7687c85e12cb15e1ecb989eac8fd70d,PennController,28,0,filler,NULL,PennController,26,_Trial_,Start,1744989237702,,ungram,undefined,,,,filler,Arkadaşım uzun bir kahvaltı yapmayı ve dışarı çıkmak istedi.,10,120,CO994419,NULL
1744990164,f7687c85e12cb15e1ecb989eac8fd70d,PennController,28,0,filler,NULL,PennController,26,_Header_,Start,1744989237702,,ungram,undefined,,,,filler,Arkadaşım uzun bir kahvaltı yapmayı ve dışarı çıkmak istedi.,10,120,CO994419,NULL
1744990164,f7687c85e12cb15e1ecb989eac8fd70d,PennController,28,0,filler,NULL,PennController,26,_Header_,End,1744989237702,,ungram,undefined,,,,filler,Arkadaşım uzun bir kahvaltı yapmayı ve dışarı çıkmak istedi.,10,120,CO994419,NULL
1744990164,f7687c85e12cb15e1ecb989eac8fd70d,PennController,28,0,filler,NULL,Text,Arkadaşım uzun bir kahvaltı yapmayı ve dışarı çıkmak istedi.,Print,NA,1744989237703,,ungram,undefined,,,,filler,Arkadaşım uzun bir kahvaltı yapmayı ve dışarı çıkmak istedi.,10,120,CO994419,NULL
1744990164,f7687c85e12cb15e1ecb989eac8fd70d,PennController,28,0,filler,NULL,Scale,scale,Choice,oldukça iyi,1744989260565,,ungram,undefined,,,,filler,Arkadaşım uzun bir kahvaltı yapmayı ve dışarı çıkmak istedi.,10,120,CO994419,NULL
1744990164,f7687c85e12cb15e1ecb989eac8fd70d,PennController,28,0,filler,NULL,PennController,26,_Trial_,End,1744989262624,,ungram,undefined,,,,filler,Arkadaşım uzun bir kahvaltı yapmayı ve dışarı çıkmak istedi.,10,120,CO994419,NULL
1744990164,f7687c85e12cb15e1ecb989eac8fd70d,PennController,97,0,exp,NULL,PennController,95,_Trial_,Start,1744989262625,,b,undefined,,boyun,burun,exp,İzel toplantı sırasında buruncu ve boyuncu bir doktordan bahsetti.,11,25,CO994419,NULL
1744990164,f7687c85e12cb15e1ecb989eac8fd70d,PennController,97,0,exp,NULL,PennController,95,_Header_,Start,1744989262625,,b,undefined,,boyun,burun,exp,İzel toplantı sırasında buruncu ve boyuncu bir doktordan bahsetti.,11,25,CO994419,NULL
1744990164,f7687c85e12cb15e1ecb989eac8fd70d,PennController,97,0,exp,NULL,PennController,95,_Header_,End,1744989262625,,b,undefined,,boyun,burun,exp,İzel toplantı sırasında buruncu ve boyuncu bir doktordan bahsetti.,11,25,CO994419,NULL
1744990164,f7687c85e12cb15e1ecb989eac8fd70d,PennController,97,0,exp,NULL,Text,İzel toplantı sırasında buruncu ve boyuncu bir doktordan bahsetti.,Print,NA,1744989262626,,b,undefined,,boyun,burun,exp,İzel toplantı sırasında buruncu ve boyuncu bir doktordan bahsetti.,11,25,CO994419,NULL
1744990164,f7687c85e12cb15e1ecb989eac8fd70d,PennController,97,0,exp,NULL,Scale,scale,Choice,kötü,1744989273822,,b,undefined,,boyun,burun,exp,İzel toplantı sırasında buruncu ve boyuncu bir doktordan bahsetti.,11,25,CO994419,NULL
1744990164,f7687c85e12cb15e1ecb989eac8fd70d,PennController,97,0,exp,NULL,PennController,95,_Trial_,End,1744989274702,,b,undefined,,boyun,burun,exp,İzel toplantı sırasında buruncu ve boyuncu bir doktordan bahsetti.,11,25,CO994419,NULL
1744990164,f7687c85e12cb15e1ecb989eac8fd70d,PennController,64,0,filler,NULL,PennController,62,_Trial_,Start,1744989274703,,gram,undefined,,,,filler,Doktorlar ağız ve burun ile alınan mikropların tehlikeli olduğunu belirtiyor.,12,232,CO994419,NULL
1744990164,f7687c85e12cb15e1ecb989eac8fd70d,PennController,64,0,filler,NULL,PennController,62,_Header_,Start,1744989274703,,gram,undefined,,,,filler,Doktorlar ağız ve burun ile alınan mikropların tehlikeli olduğunu belirtiyor.,12,232,CO994419,NULL
1744990164,f7687c85e12cb15e1ecb989eac8fd70d,PennController,64,0,filler,NULL,PennController,62,_Header_,End,1744989274703,,gram,undefined,,,,filler,Doktorlar ağız ve burun ile alınan mikropların tehlikeli olduğunu belirtiyor.,12,232,CO994419,NULL
1744990164,f7687c85e12cb15e1ecb989eac8fd70d,PennController,64,0,filler,NULL,Text,Doktorlar ağız ve burun ile alınan mikropların tehlikeli olduğunu belirtiyor.,Print,NA,1744989274703,,gram,undefined,,,,filler,Doktorlar ağız ve burun ile alınan mikropların tehlikeli olduğunu belirtiyor.,12,232,CO994419,NULL
1744990164,f7687c85e12cb15e1ecb989eac8fd70d,PennController,64,0,filler,NULL,Scale,scale,Choice,iyi,1744989294419,,gram,undefined,,,,filler,Doktorlar ağız ve burun ile alınan mikropların tehlikeli olduğunu belirtiyor.,12,232,CO994419,NULL
1744990164,f7687c85e12cb15e1ecb989eac8fd70d,PennController,64,0,filler,NULL,PennController,62,_Trial_,End,1744989295236,,gram,undefined,,,,filler,Doktorlar ağız ve burun ile alınan mikropların tehlikeli olduğunu belirtiyor.,12,232,CO994419,NULL
1744990164,f7687c85e12cb15e1ecb989eac8fd70d,PennController,35,0,filler,NULL,PennController,33,_Trial_,Start,1744989295237,Evet,gram,undefined,Tepeler zorlu muydu?,,,filler,Piknik alanına yüksek ve zorlu tepeleri aşarak varmamız gerekti.,13,203,CO994419,NULL
1744990164,f7687c85e12cb15e1ecb989eac8fd70d,PennController,35,0,filler,NULL,PennController,33,_Header_,Start,1744989295237,Evet,gram,undefined,Tepeler zorlu muydu?,,,filler,Piknik alanına yüksek ve zorlu tepeleri aşarak varmamız gerekti.,13,203,CO994419,NULL
1744990164,f7687c85e12cb15e1ecb989eac8fd70d,PennController,35,0,filler,NULL,PennController,33,_Header_,End,1744989295237,Evet,gram,undefined,Tepeler zorlu muydu?,,,filler,Piknik alanına yüksek ve zorlu tepeleri aşarak varmamız gerekti.,13,203,CO994419,NULL
1744990164,f7687c85e12cb15e1ecb989eac8fd70d,PennController,35,0,filler,NULL,Text,Piknik alanına yüksek ve zorlu tepeleri aşarak varmamız gerekti.,Print,NA,1744989295237,Evet,gram,undefined,Tepeler zorlu muydu?,,,filler,Piknik alanına yüksek ve zorlu tepeleri aşarak varmamız gerekti.,13,203,CO994419,NULL
1744990164,f7687c85e12cb15e1ecb989eac8fd70d,PennController,35,0,filler,NULL,Scale,scale,Choice,oldukça iyi,1744989304218,Evet,gram,undefined,Tepeler zorlu muydu?,,,filler,Piknik alanına yüksek ve zorlu tepeleri aşarak varmamız gerekti.,13,203,CO994419,NULL
1744990164,f7687c85e12cb15e1ecb989eac8fd70d,PennController,35,0,filler,NULL,Text,questionasked,Print,NA,1744989304982,Evet,gram,undefined,Tepeler zorlu muydu?,,,filler,Piknik alanına yüksek ve zorlu tepeleri aşarak varmamız gerekti.,13,203,CO994419,NULL
1744990164,f7687c85e12cb15e1ecb989eac8fd70d,PennController,35,0,filler,NULL,Scale,answer,Choice,Evet,1744989306989,Evet,gram,undefined,Tepeler zorlu muydu?,,,filler,Piknik alanına yüksek ve zorlu tepeleri aşarak varmamız gerekti.,13,203,CO994419,NULL
1744990164,f7687c85e12cb15e1ecb989eac8fd70d,PennController,35,0,filler,NULL,Scale,answer,Evet,checked,1744989312830,Evet,gram,undefined,Tepeler zorlu muydu?,,,filler,Piknik alanına yüksek ve zorlu tepeleri aşarak varmamız gerekti.,13,203,CO994419,Status
1744990164,f7687c85e12cb15e1ecb989eac8fd70d,PennController,35,0,filler,NULL,Scale,answer,Hayir,unchecked,1744989312830,Evet,gram,undefined,Tepeler zorlu muydu?,,,filler,Piknik alanına yüksek ve zorlu tepeleri aşarak varmamız gerekti.,13,203,CO994419,Status
1744990164,f7687c85e12cb15e1ecb989eac8fd70d,PennController,35,0,filler,NULL,PennController,33,_Trial_,End,1744989312830,Evet,gram,undefined,Tepeler zorlu muydu?,,,filler,Piknik alanına yüksek ve zorlu tepeleri aşarak varmamız gerekti.,13,203,CO994419,NULL
1744990164,f7687c85e12cb15e1ecb989eac8fd70d,PennController,89,0,exp,NULL,PennController,87,_Trial_,Start,1744989312831,,b,undefined,,nehir,tepe,exp,Eylül kamp yaparken tepeci ve nehirci bir rehberle doğa yürüyüşüne çıktı.,14,17,CO994419,NULL
1744990164,f7687c85e12cb15e1ecb989eac8fd70d,PennController,89,0,exp,NULL,PennController,87,_Header_,Start,1744989312831,,b,undefined,,nehir,tepe,exp,Eylül kamp yaparken tepeci ve nehirci bir rehberle doğa yürüyüşüne çıktı.,14,17,CO994419,NULL
1744990164,f7687c85e12cb15e1ecb989eac8fd70d,PennController,89,0,exp,NULL,PennController,87,_Header_,End,1744989312831,,b,undefined,,nehir,tepe,exp,Eylül kamp yaparken tepeci ve nehirci bir rehberle doğa yürüyüşüne çıktı.,14,17,CO994419,NULL
1744990164,f7687c85e12cb15e1ecb989eac8fd70d,PennController,89,0,exp,NULL,Text,Eylül kamp yaparken tepeci ve nehirci bir rehberle doğa yürüyüşüne çıktı.,Print,NA,1744989312832,,b,undefined,,nehir,tepe,exp,Eylül kamp yaparken tepeci ve nehirci bir rehberle doğa yürüyüşüne çıktı.,14,17,CO994419,NULL
1744990164,f7687c85e12cb15e1ecb989eac8fd70d,PennController,89,0,exp,NULL,Scale,scale,Choice,kötü,1744989326932,,b,undefined,,nehir,tepe,exp,Eylül kamp yaparken tepeci ve nehirci bir rehberle doğa yürüyüşüne çıktı.,14,17,CO994419,NULL
1744990164,f7687c85e12cb15e1ecb989eac8fd70d,PennController,89,0,exp,NULL,PennController,87,_Trial_,End,1744989327810,,b,undefined,,nehir,tepe,exp,Eylül kamp yaparken tepeci ve nehirci bir rehberle doğa yürüyüşüne çıktı.,14,17,CO994419,NULL
1744990164,f7687c85e12cb15e1ecb989eac8fd70d,PennController,38,0,filler,NULL,PennController,36,_Trial_,Start,1744989327812,,gram,undefined,,,,filler,Çalışma masasındaki kitapları ve defterleri her zaman düzenli bırakır.,15,206,CO994419,NULL
1744990164,f7687c85e12cb15e1ecb989eac8fd70d,PennController,38,0,filler,NULL,PennController,36,_Header_,Start,1744989327812,,gram,undefined,,,,filler,Çalışma masasındaki kitapları ve defterleri her zaman düzenli bırakır.,15,206,CO994419,NULL
1744990164,f7687c85e12cb15e1ecb989eac8fd70d,PennController,38,0,filler,NULL,PennController,36,_Header_,End,1744989327812,,gram,undefined,,,,filler,Çalışma masasındaki kitapları ve defterleri her zaman düzenli bırakır.,15,206,CO994419,NULL
1744990164,f7687c85e12cb15e1ecb989eac8fd70d,PennController,38,0,filler,NULL,Text,Çalışma masasındaki kitapları ve defterleri her zaman düzenli bırakır.,Print,NA,1744989327812,,gram,undefined,,,,filler,Çalışma masasındaki kitapları ve defterleri her zaman düzenli bırakır.,15,206,CO994419,NULL
1744990164,f7687c85e12cb15e1ecb989eac8fd70d,PennController,38,0,filler,NULL,Scale,scale,Choice,oldukça iyi,1744989331326,,gram,undefined,,,,filler,Çalışma masasındaki kitapları ve defterleri her zaman düzenli bırakır.,15,206,CO994419,NULL
1744990164,f7687c85e12cb15e1ecb989eac8fd70d,PennController,38,0,filler,NULL,PennController,36,_Trial_,End,1744989332220,,gram,undefined,,,,filler,Çalışma masasındaki kitapları ve defterleri her zaman düzenli bırakır.,15,206,CO994419,NULL
1744990164,f7687c85e12cb15e1ecb989eac8fd70d,PennController,17,0,filler,NULL,PennController,15,_Trial_,Start,1744989332221,Hayır,ungram,undefined,Cümlede 'doğmak' kelimesi geçti mi?,,,filler,Çiçek veren adamın öldüğü kadına tanıyordum.,16,109,CO994419,NULL
1744990164,f7687c85e12cb15e1ecb989eac8fd70d,PennController,17,0,filler,NULL,PennController,15,_Header_,Start,1744989332221,Hayır,ungram,undefined,Cümlede 'doğmak' kelimesi geçti mi?,,,filler,Çiçek veren adamın öldüğü kadına tanıyordum.,16,109,CO994419,NULL
1744990164,f7687c85e12cb15e1ecb989eac8fd70d,PennController,17,0,filler,NULL,PennController,15,_Header_,End,1744989332221,Hayır,ungram,undefined,Cümlede 'doğmak' kelimesi geçti mi?,,,filler,Çiçek veren adamın öldüğü kadına tanıyordum.,16,109,CO994419,NULL
1744990164,f7687c85e12cb15e1ecb989eac8fd70d,PennController,17,0,filler,NULL,Text,Çiçek veren adamın öldüğü kadına tanıyordum.,Print,NA,1744989332221,Hayır,ungram,undefined,Cümlede 'doğmak' kelimesi geçti mi?,,,filler,Çiçek veren adamın öldüğü kadına tanıyordum.,16,109,CO994419,NULL
1744990164,f7687c85e12cb15e1ecb989eac8fd70d,PennController,17,0,filler,NULL,Scale,scale,Choice,oldukça kötü,1744989335294,Hayır,ungram,undefined,Cümlede 'doğmak' kelimesi geçti mi?,,,filler,Çiçek veren adamın öldüğü kadına tanıyordum.,16,109,CO994419,NULL
1744990164,f7687c85e12cb15e1ecb989eac8fd70d,PennController,17,0,filler,NULL,Text,questionasked,Print,NA,1744989336044,Hayır,ungram,undefined,Cümlede 'doğmak' kelimesi geçti mi?,,,filler,Çiçek veren adamın öldüğü kadına tanıyordum.,16,109,CO994419,NULL
1744990164,f7687c85e12cb15e1ecb989eac8fd70d,PennController,17,0,filler,NULL,Scale,answer,Choice,Hayir,1744989337304,Hayır,ungram,undefined,Cümlede 'doğmak' kelimesi geçti mi?,,,filler,Çiçek veren adamın öldüğü kadına tanıyordum.,16,109,CO994419,NULL
1744990164,f7687c85e12cb15e1ecb989eac8fd70d,PennController,17,0,filler,NULL,Scale,answer,Evet,unchecked,1744989337833,Hayır,ungram,undefined,Cümlede 'doğmak' kelimesi geçti mi?,,,filler,Çiçek veren adamın öldüğü kadına tanıyordum.,16,109,CO994419,Status
1744990164,f7687c85e12cb15e1ecb989eac8fd70d,PennController,17,0,filler,NULL,Scale,answer,Hayir,checked,1744989337833,Hayır,ungram,undefined,Cümlede 'doğmak' kelimesi geçti mi?,,,filler,Çiçek veren adamın öldüğü kadına tanıyordum.,16,109,CO994419,Status
1744990164,f7687c85e12cb15e1ecb989eac8fd70d,PennController,17,0,filler,NULL,PennController,15,_Trial_,End,1744989337833,Hayır,ungram,undefined,Cümlede 'doğmak' kelimesi geçti mi?,,,filler,Çiçek veren adamın öldüğü kadına tanıyordum.,16,109,CO994419,NULL
1744990164,f7687c85e12cb15e1ecb989eac8fd70d,PennController,93,0,exp,NULL,PennController,91,_Trial_,Start,1744989337834,,f,undefined,,abla,abi,exp,Mertcan dün akşam abisiz ve ablasız bir hayat düşündü.,17,21,CO994419,NULL
1744990164,f7687c85e12cb15e1ecb989eac8fd70d,PennController,93,0,exp,NULL,PennController,91,_Header_,Start,1744989337834,,f,undefined,,abla,abi,exp,Mertcan dün akşam abisiz ve ablasız bir hayat düşündü.,17,21,CO994419,NULL
1744990164,f7687c85e12cb15e1ecb989eac8fd70d,PennController,93,0,exp,NULL,PennController,91,_Header_,End,1744989337834,,f,undefined,,abla,abi,exp,Mertcan dün akşam abisiz ve ablasız bir hayat düşündü.,17,21,CO994419,NULL
1744990164,f7687c85e12cb15e1ecb989eac8fd70d,PennController,93,0,exp,NULL,Text,Mertcan dün akşam abisiz ve ablasız bir hayat düşündü.,Print,NA,1744989337835,,f,undefined,,abla,abi,exp,Mertcan dün akşam abisiz ve ablasız bir hayat düşündü.,17,21,CO994419,NULL
1744990164,f7687c85e12cb15e1ecb989eac8fd70d,PennController,93,0,exp,NULL,Scale,scale,Choice,oldukça iyi,1744989342958,,f,undefined,,abla,abi,exp,Mertcan dün akşam abisiz ve ablasız bir hayat düşündü.,17,21,CO994419,NULL
1744990164,f7687c85e12cb15e1ecb989eac8fd70d,PennController,93,0,exp,NULL,PennController,91,_Trial_,End,1744989343689,,f,undefined,,abla,abi,exp,Mertcan dün akşam abisiz ve ablasız bir hayat düşündü.,17,21,CO994419,NULL
1744990164,f7687c85e12cb15e1ecb989eac8fd70d,PennController,22,0,filler,NULL,PennController,20,_Trial_,Start,1744989343690,,ungram,undefined,,,,filler,Ziyaretçiye göre kendisine tanınan sürenin belirlendiği biliyordu.,18,114,CO994419,NULL
1744990164,f7687c85e12cb15e1ecb989eac8fd70d,PennController,22,0,filler,NULL,PennController,20,_Header_,Start,1744989343690,,ungram,undefined,,,,filler,Ziyaretçiye göre kendisine tanınan sürenin belirlendiği biliyordu.,18,114,CO994419,NULL
1744990164,f7687c85e12cb15e1ecb989eac8fd70d,PennController,22,0,filler,NULL,PennController,20,_Header_,End,1744989343690,,ungram,undefined,,,,filler,Ziyaretçiye göre kendisine tanınan sürenin belirlendiği biliyordu.,18,114,CO994419,NULL
1744990164,f7687c85e12cb15e1ecb989eac8fd70d,PennController,22,0,filler,NULL,Text,Ziyaretçiye göre kendisine tanınan sürenin belirlendiği biliyordu.,Print,NA,1744989343690,,ungram,undefined,,,,filler,Ziyaretçiye göre kendisine tanınan sürenin belirlendiği biliyordu.,18,114,CO994419,NULL
1744990164,f7687c85e12cb15e1ecb989eac8fd70d,PennController,22,0,filler,NULL,Scale,scale,Choice,oldukça kötü,1744989351326,,ungram,undefined,,,,filler,Ziyaretçiye göre kendisine tanınan sürenin belirlendiği biliyordu.,18,114,CO994419,NULL
1744990164,f7687c85e12cb15e1ecb989eac8fd70d,PennController,22,0,filler,NULL,PennController,20,_Trial_,End,1744989351996,,ungram,undefined,,,,filler,Ziyaretçiye göre kendisine tanınan sürenin belirlendiği biliyordu.,18,114,CO994419,NULL
1744990164,f7687c85e12cb15e1ecb989eac8fd70d,PennController,71,0,filler,NULL,PennController,69,_Trial_,Start,1744989351997,,gram,undefined,,,,filler,Murat yemekhanedeki ıspana ve pırasa yemeklerinden nefret ediyor.,19,239,CO994419,NULL
1744990164,f7687c85e12cb15e1ecb989eac8fd70d,PennController,71,0,filler,NULL,PennController,69,_Header_,Start,1744989351997,,gram,undefined,,,,filler,Murat yemekhanedeki ıspana ve pırasa yemeklerinden nefret ediyor.,19,239,CO994419,NULL
1744990164,f7687c85e12cb15e1ecb989eac8fd70d,PennController,71,0,filler,NULL,PennController,69,_Header_,End,1744989351997,,gram,undefined,,,,filler,Murat yemekhanedeki ıspana ve pırasa yemeklerinden nefret ediyor.,19,239,CO994419,NULL
1744990164,f7687c85e12cb15e1ecb989eac8fd70d,PennController,71,0,filler,NULL,Text,Murat yemekhanedeki ıspana ve pırasa yemeklerinden nefret ediyor.,Print,NA,1744989351997,,gram,undefined,,,,filler,Murat yemekhanedeki ıspana ve pırasa yemeklerinden nefret ediyor.,19,239,CO994419,NULL
1744990164,f7687c85e12cb15e1ecb989eac8fd70d,PennController,71,0,filler,NULL,Scale,scale,Choice,oldukça iyi,1744989446889,,gram,undefined,,,,filler,Murat yemekhanedeki ıspana ve pırasa yemeklerinden nefret ediyor.,19,239,CO994419,NULL
1744990164,f7687c85e12cb15e1ecb989eac8fd70d,PennController,71,0,filler,NULL,PennController,69,_Trial_,End,1744989449469,,gram,undefined,,,,filler,Murat yemekhanedeki ıspana ve pırasa yemeklerinden nefret ediyor.,19,239,CO994419,NULL
1744990164,f7687c85e12cb15e1ecb989eac8fd70d,PennController,92,0,exp,NULL,PennController,90,_Trial_,Start,1744989449470,,g,undefined,,dede,büyükanne,exp,Fehime düğünden önce büyükanne ve dedelik ilişkisi üzerine bir roman okudu.,20,20,CO994419,NULL
1744990164,f7687c85e12cb15e1ecb989eac8fd70d,PennController,92,0,exp,NULL,PennController,90,_Header_,Start,1744989449470,,g,undefined,,dede,büyükanne,exp,Fehime düğünden önce büyükanne ve dedelik ilişkisi üzerine bir roman okudu.,20,20,CO994419,NULL
1744990164,f7687c85e12cb15e1ecb989eac8fd70d,PennController,92,0,exp,NULL,PennController,90,_Header_,End,1744989449470,,g,undefined,,dede,büyükanne,exp,Fehime düğünden önce büyükanne ve dedelik ilişkisi üzerine bir roman okudu.,20,20,CO994419,NULL
1744990164,f7687c85e12cb15e1ecb989eac8fd70d,PennController,92,0,exp,NULL,Text,Fehime düğünden önce büyükanne ve dedelik ilişkisi üzerine bir roman okudu.,Print,NA,1744989449471,,g,undefined,,dede,büyükanne,exp,Fehime düğünden önce büyükanne ve dedelik ilişkisi üzerine bir roman okudu.,20,20,CO994419,NULL
1744990164,f7687c85e12cb15e1ecb989eac8fd70d,PennController,92,0,exp,NULL,Scale,scale,Choice,kötü sayılır,1744989460656,,g,undefined,,dede,büyükanne,exp,Fehime düğünden önce büyükanne ve dedelik ilişkisi üzerine bir roman okudu.,20,20,CO994419,NULL
1744990164,f7687c85e12cb15e1ecb989eac8fd70d,PennController,92,0,exp,NULL,PennController,90,_Trial_,End,1744989461348,,g,undefined,,dede,büyükanne,exp,Fehime düğünden önce büyükanne ve dedelik ilişkisi üzerine bir roman okudu.,20,20,CO994419,NULL
1744990164,f7687c85e12cb15e1ecb989eac8fd70d,PennController,46,0,filler,NULL,PennController,44,_Trial_,Start,1744989461349,,gram,undefined,,,,filler,Cem tavuklara ve horozlara yeni satılan pahalı yemden almış.,21,214,CO994419,NULL
1744990164,f7687c85e12cb15e1ecb989eac8fd70d,PennController,46,0,filler,NULL,PennController,44,_Header_,Start,1744989461349,,gram,undefined,,,,filler,Cem tavuklara ve horozlara yeni satılan pahalı yemden almış.,21,214,CO994419,NULL
1744990164,f7687c85e12cb15e1ecb989eac8fd70d,PennController,46,0,filler,NULL,PennController,44,_Header_,End,1744989461349,,gram,undefined,,,,filler,Cem tavuklara ve horozlara yeni satılan pahalı yemden almış.,21,214,CO994419,NULL
1744990164,f7687c85e12cb15e1ecb989eac8fd70d,PennController,46,0,filler,NULL,Text,Cem tavuklara ve horozlara yeni satılan pahalı yemden almış.,Print,NA,1744989461350,,gram,undefined,,,,filler,Cem tavuklara ve horozlara yeni satılan pahalı yemden almış.,21,214,CO994419,NULL
1744990164,f7687c85e12cb15e1ecb989eac8fd70d,PennController,46,0,filler,NULL,Scale,scale,Choice,oldukça iyi,1744989467117,,gram,undefined,,,,filler,Cem tavuklara ve horozlara yeni satılan pahalı yemden almış.,21,214,CO994419,NULL
1744990164,f7687c85e12cb15e1ecb989eac8fd70d,PennController,46,0,filler,NULL,PennController,44,_Trial_,End,1744989467863,,gram,undefined,,,,filler,Cem tavuklara ve horozlara yeni satılan pahalı yemden almış.,21,214,CO994419,NULL
1744990164,f7687c85e12cb15e1ecb989eac8fd70d,PennController,24,0,filler,NULL,PennController,22,_Trial_,Start,1744989467864,,ungram,undefined,,,,filler,Yavaş Hasan'ın konuşması rahatsız etmiş herkesi.,22,116,CO994419,NULL
1744990164,f7687c85e12cb15e1ecb989eac8fd70d,PennController,24,0,filler,NULL,PennController,22,_Header_,Start,1744989467864,,ungram,undefined,,,,filler,Yavaş Hasan'ın konuşması rahatsız etmiş herkesi.,22,116,CO994419,NULL
1744990164,f7687c85e12cb15e1ecb989eac8fd70d,PennController,24,0,filler,NULL,PennController,22,_Header_,End,1744989467864,,ungram,undefined,,,,filler,Yavaş Hasan'ın konuşması rahatsız etmiş herkesi.,22,116,CO994419,NULL
1744990164,f7687c85e12cb15e1ecb989eac8fd70d,PennController,24,0,filler,NULL,Text,Yavaş Hasan'ın konuşması rahatsız etmiş herkesi.,Print,NA,1744989467865,,ungram,undefined,,,,filler,Yavaş Hasan'ın konuşması rahatsız etmiş herkesi.,22,116,CO994419,NULL
1744990164,f7687c85e12cb15e1ecb989eac8fd70d,PennController,24,0,filler,NULL,Scale,scale,Choice,oldukça iyi,1744989476604,,ungram,undefined,,,,filler,Yavaş Hasan'ın konuşması rahatsız etmiş herkesi.,22,116,CO994419,NULL
1744990164,f7687c85e12cb15e1ecb989eac8fd70d,PennController,24,0,filler,NULL,PennController,22,_Trial_,End,1744989477212,,ungram,undefined,,,,filler,Yavaş Hasan'ın konuşması rahatsız etmiş herkesi.,22,116,CO994419,NULL
1744990164,f7687c85e12cb15e1ecb989eac8fd70d,PennController,91,0,exp,NULL,PennController,89,_Trial_,Start,1744989477212,,h,undefined,,gündüz,gece,exp,Zühre son yolculukta gecelik ve gündüzlük bir program belirledi.,23,19,CO994419,NULL
1744990164,f7687c85e12cb15e1ecb989eac8fd70d,PennController,91,0,exp,NULL,PennController,89,_Header_,Start,1744989477212,,h,undefined,,gündüz,gece,exp,Zühre son yolculukta gecelik ve gündüzlük bir program belirledi.,23,19,CO994419,NULL
1744990164,f7687c85e12cb15e1ecb989eac8fd70d,PennController,91,0,exp,NULL,PennController,89,_Header_,End,1744989477213,,h,undefined,,gündüz,gece,exp,Zühre son yolculukta gecelik ve gündüzlük bir program belirledi.,23,19,CO994419,NULL
1744990164,f7687c85e12cb15e1ecb989eac8fd70d,PennController,91,0,exp,NULL,Text,Zühre son yolculukta gecelik ve gündüzlük bir program belirledi.,Print,NA,1744989477213,,h,undefined,,gündüz,gece,exp,Zühre son yolculukta gecelik ve gündüzlük bir program belirledi.,23,19,CO994419,NULL
1744990164,f7687c85e12cb15e1ecb989eac8fd70d,PennController,91,0,exp,NULL,Scale,scale,Choice,kötü sayılır,1744989483172,,h,undefined,,gündüz,gece,exp,Zühre son yolculukta gecelik ve gündüzlük bir program belirledi.,23,19,CO994419,NULL
1744990164,f7687c85e12cb15e1ecb989eac8fd70d,PennController,91,0,exp,NULL,PennController,89,_Trial_,End,1744989483887,,h,undefined,,gündüz,gece,exp,Zühre son yolculukta gecelik ve gündüzlük bir program belirledi.,23,19,CO994419,NULL
1744990164,f7687c85e12cb15e1ecb989eac8fd70d,PennController,49,0,filler,NULL,PennController,47,_Trial_,Start,1744989483888,,gram,undefined,,,,filler,Tamirci oldukça ağır fırını ve buzdolabını işyerine taşımak zorunda kaldı.,24,217,CO994419,NULL
1744990164,f7687c85e12cb15e1ecb989eac8fd70d,PennController,49,0,filler,NULL,PennController,47,_Header_,Start,1744989483888,,gram,undefined,,,,filler,Tamirci oldukça ağır fırını ve buzdolabını işyerine taşımak zorunda kaldı.,24,217,CO994419,NULL
1744990164,f7687c85e12cb15e1ecb989eac8fd70d,PennController,49,0,filler,NULL,PennController,47,_Header_,End,1744989483889,,gram,undefined,,,,filler,Tamirci oldukça ağır fırını ve buzdolabını işyerine taşımak zorunda kaldı.,24,217,CO994419,NULL
1744990164,f7687c85e12cb15e1ecb989eac8fd70d,PennController,49,0,filler,NULL,Text,Tamirci oldukça ağır fırını ve buzdolabını işyerine taşımak zorunda kaldı.,Print,NA,1744989483889,,gram,undefined,,,,filler,Tamirci oldukça ağır fırını ve buzdolabını işyerine taşımak zorunda kaldı.,24,217,CO994419,NULL
1744990164,f7687c85e12cb15e1ecb989eac8fd70d,PennController,49,0,filler,NULL,Scale,scale,Choice,oldukça iyi,1744989494127,,gram,undefined,,,,filler,Tamirci oldukça ağır fırını ve buzdolabını işyerine taşımak zorunda kaldı.,24,217,CO994419,NULL
1744990164,f7687c85e12cb15e1ecb989eac8fd70d,PennController,49,0,filler,NULL,PennController,47,_Trial_,End,1744989494982,,gram,undefined,,,,filler,Tamirci oldukça ağır fırını ve buzdolabını işyerine taşımak zorunda kaldı.,24,217,CO994419,NULL
1744990164,f7687c85e12cb15e1ecb989eac8fd70d,PennController,40,0,filler,NULL,PennController,38,_Trial_,Start,1744989494983,Hayır,gram,undefined,Cümlede 'mavi' kelimesi geçti mi?,,,filler,Metin severek kullandığı kırmızı ve kalın atkıyı geçenlerde kaybetmiş.,25,208,CO994419,NULL
1744990164,f7687c85e12cb15e1ecb989eac8fd70d,PennController,40,0,filler,NULL,PennController,38,_Header_,Start,1744989494983,Hayır,gram,undefined,Cümlede 'mavi' kelimesi geçti mi?,,,filler,Metin severek kullandığı kırmızı ve kalın atkıyı geçenlerde kaybetmiş.,25,208,CO994419,NULL
1744990164,f7687c85e12cb15e1ecb989eac8fd70d,PennController,40,0,filler,NULL,PennController,38,_Header_,End,1744989494983,Hayır,gram,undefined,Cümlede 'mavi' kelimesi geçti mi?,,,filler,Metin severek kullandığı kırmızı ve kalın atkıyı geçenlerde kaybetmiş.,25,208,CO994419,NULL
1744990164,f7687c85e12cb15e1ecb989eac8fd70d,PennController,40,0,filler,NULL,Text,Metin severek kullandığı kırmızı ve kalın atkıyı geçenlerde kaybetmiş.,Print,NA,1744989494984,Hayır,gram,undefined,Cümlede 'mavi' kelimesi geçti mi?,,,filler,Metin severek kullandığı kırmızı ve kalın atkıyı geçenlerde kaybetmiş.,25,208,CO994419,NULL
1744990164,f7687c85e12cb15e1ecb989eac8fd70d,PennController,40,0,filler,NULL,Scale,scale,Choice,oldukça iyi,1744989499352,Hayır,gram,undefined,Cümlede 'mavi' kelimesi geçti mi?,,,filler,Metin severek kullandığı kırmızı ve kalın atkıyı geçenlerde kaybetmiş.,25,208,CO994419,NULL
1744990164,f7687c85e12cb15e1ecb989eac8fd70d,PennController,40,0,filler,NULL,Text,questionasked,Print,NA,1744989500007,Hayır,gram,undefined,Cümlede 'mavi' kelimesi geçti mi?,,,filler,Metin severek kullandığı kırmızı ve kalın atkıyı geçenlerde kaybetmiş.,25,208,CO994419,NULL
1744990164,f7687c85e12cb15e1ecb989eac8fd70d,PennController,40,0,filler,NULL,Scale,answer,Choice,Hayir,1744989501347,Hayır,gram,undefined,Cümlede 'mavi' kelimesi geçti mi?,,,filler,Metin severek kullandığı kırmızı ve kalın atkıyı geçenlerde kaybetmiş.,25,208,CO994419,NULL
1744990164,f7687c85e12cb15e1ecb989eac8fd70d,PennController,40,0,filler,NULL,Scale,answer,Evet,unchecked,1744989501900,Hayır,gram,undefined,Cümlede 'mavi' kelimesi geçti mi?,,,filler,Metin severek kullandığı kırmızı ve kalın atkıyı geçenlerde kaybetmiş.,25,208,CO994419,Status
1744990164,f7687c85e12cb15e1ecb989eac8fd70d,PennController,40,0,filler,NULL,Scale,answer,Hayir,checked,1744989501900,Hayır,gram,undefined,Cümlede 'mavi' kelimesi geçti mi?,,,filler,Metin severek kullandığı kırmızı ve kalın atkıyı geçenlerde kaybetmiş.,25,208,CO994419,Status
1744990164,f7687c85e12cb15e1ecb989eac8fd70d,PennController,40,0,filler,NULL,PennController,38,_Trial_,End,1744989501900,Hayır,gram,undefined,Cümlede 'mavi' kelimesi geçti mi?,,,filler,Metin severek kullandığı kırmızı ve kalın atkıyı geçenlerde kaybetmiş.,25,208,CO994419,NULL
1744990164,f7687c85e12cb15e1ecb989eac8fd70d,PennController,73,0,exp,NULL,PennController,71,_Trial_,Start,1744989501901,,b,undefined,,ayakkabı,çorap,exp,Emel geçen haftasonu çorapçı ve ayakkabıcı bir adamla tanıştı.,26,1,CO994419,NULL
1744990164,f7687c85e12cb15e1ecb989eac8fd70d,PennController,73,0,exp,NULL,PennController,71,_Header_,Start,1744989501901,,b,undefined,,ayakkabı,çorap,exp,Emel geçen haftasonu çorapçı ve ayakkabıcı bir adamla tanıştı.,26,1,CO994419,NULL
1744990164,f7687c85e12cb15e1ecb989eac8fd70d,PennController,73,0,exp,NULL,PennController,71,_Header_,End,1744989501901,,b,undefined,,ayakkabı,çorap,exp,Emel geçen haftasonu çorapçı ve ayakkabıcı bir adamla tanıştı.,26,1,CO994419,NULL
1744990164,f7687c85e12cb15e1ecb989eac8fd70d,PennController,73,0,exp,NULL,Text,Emel geçen haftasonu çorapçı ve ayakkabıcı bir adamla tanıştı.,Print,NA,1744989501901,,b,undefined,,ayakkabı,çorap,exp,Emel geçen haftasonu çorapçı ve ayakkabıcı bir adamla tanıştı.,26,1,CO994419,NULL
1744990164,f7687c85e12cb15e1ecb989eac8fd70d,PennController,73,0,exp,NULL,Scale,scale,Choice,iyi,1744989510304,,b,undefined,,ayakkabı,çorap,exp,Emel geçen haftasonu çorapçı ve ayakkabıcı bir adamla tanıştı.,26,1,CO994419,NULL
1744990164,f7687c85e12cb15e1ecb989eac8fd70d,PennController,73,0,exp,NULL,PennController,71,_Trial_,End,1744989511021,,b,undefined,,ayakkabı,çorap,exp,Emel geçen haftasonu çorapçı ve ayakkabıcı bir adamla tanıştı.,26,1,CO994419,NULL
1744990164,f7687c85e12cb15e1ecb989eac8fd70d,PennController,43,0,filler,NULL,PennController,41,_Trial_,Start,1744989511022,,gram,undefined,,,,filler,Belma mağazadaki parlak ve taşlı süslemeleri biraz demode buldu.,27,211,CO994419,NULL
1744990164,f7687c85e12cb15e1ecb989eac8fd70d,PennController,43,0,filler,NULL,PennController,41,_Header_,Start,1744989511022,,gram,undefined,,,,filler,Belma mağazadaki parlak ve taşlı süslemeleri biraz demode buldu.,27,211,CO994419,NULL
1744990164,f7687c85e12cb15e1ecb989eac8fd70d,PennController,43,0,filler,NULL,PennController,41,_Header_,End,1744989511023,,gram,undefined,,,,filler,Belma mağazadaki parlak ve taşlı süslemeleri biraz demode buldu.,27,211,CO994419,NULL
1744990164,f7687c85e12cb15e1ecb989eac8fd70d,PennController,43,0,filler,NULL,Text,Belma mağazadaki parlak ve taşlı süslemeleri biraz demode buldu.,Print,NA,1744989511023,,gram,undefined,,,,filler,Belma mağazadaki parlak ve taşlı süslemeleri biraz demode buldu.,27,211,CO994419,NULL
1744990164,f7687c85e12cb15e1ecb989eac8fd70d,PennController,43,0,filler,NULL,Scale,scale,Choice,oldukça iyi,1744989515866,,gram,undefined,,,,filler,Belma mağazadaki parlak ve taşlı süslemeleri biraz demode buldu.,27,211,CO994419,NULL
1744990164,f7687c85e12cb15e1ecb989eac8fd70d,PennController,43,0,filler,NULL,PennController,41,_Trial_,End,1744989516539,,gram,undefined,,,,filler,Belma mağazadaki parlak ve taşlı süslemeleri biraz demode buldu.,27,211,CO994419,NULL
1744990164,f7687c85e12cb15e1ecb989eac8fd70d,PennController,39,0,filler,NULL,PennController,37,_Trial_,Start,1744989516540,,gram,undefined,,,,filler,Alışveriş merkezinde gördüğü pahalı ayakkabıya ve çantaya bayılmış.,28,207,CO994419,NULL
1744990164,f7687c85e12cb15e1ecb989eac8fd70d,PennController,39,0,filler,NULL,PennController,37,_Header_,Start,1744989516540,,gram,undefined,,,,filler,Alışveriş merkezinde gördüğü pahalı ayakkabıya ve çantaya bayılmış.,28,207,CO994419,NULL
1744990164,f7687c85e12cb15e1ecb989eac8fd70d,PennController,39,0,filler,NULL,PennController,37,_Header_,End,1744989516540,,gram,undefined,,,,filler,Alışveriş merkezinde gördüğü pahalı ayakkabıya ve çantaya bayılmış.,28,207,CO994419,NULL
1744990164,f7687c85e12cb15e1ecb989eac8fd70d,PennController,39,0,filler,NULL,Text,Alışveriş merkezinde gördüğü pahalı ayakkabıya ve çantaya bayılmış.,Print,NA,1744989516541,,gram,undefined,,,,filler,Alışveriş merkezinde gördüğü pahalı ayakkabıya ve çantaya bayılmış.,28,207,CO994419,NULL
1744990164,f7687c85e12cb15e1ecb989eac8fd70d,PennController,39,0,filler,NULL,Scale,scale,Choice,oldukça iyi,1744989521050,,gram,undefined,,,,filler,Alışveriş merkezinde gördüğü pahalı ayakkabıya ve çantaya bayılmış.,28,207,CO994419,NULL
1744990164,f7687c85e12cb15e1ecb989eac8fd70d,PennController,39,0,filler,NULL,PennController,37,_Trial_,End,1744989521865,,gram,undefined,,,,filler,Alışveriş merkezinde gördüğü pahalı ayakkabıya ve çantaya bayılmış.,28,207,CO994419,NULL
1744990164,f7687c85e12cb15e1ecb989eac8fd70d,PennController,75,0,exp,NULL,PennController,73,_Trial_,Start,1744989521866,,h,undefined,,şapka,atkı,exp,Leyla eski çarşıda atkılık ve şapkalık bir askı beğenmiş.,29,3,CO994419,NULL
1744990164,f7687c85e12cb15e1ecb989eac8fd70d,PennController,75,0,exp,NULL,PennController,73,_Header_,Start,1744989521866,,h,undefined,,şapka,atkı,exp,Leyla eski çarşıda atkılık ve şapkalık bir askı beğenmiş.,29,3,CO994419,NULL
1744990164,f7687c85e12cb15e1ecb989eac8fd70d,PennController,75,0,exp,NULL,PennController,73,_Header_,End,1744989521866,,h,undefined,,şapka,atkı,exp,Leyla eski çarşıda atkılık ve şapkalık bir askı beğenmiş.,29,3,CO994419,NULL
1744990164,f7687c85e12cb15e1ecb989eac8fd70d,PennController,75,0,exp,NULL,Text,Leyla eski çarşıda atkılık ve şapkalık bir askı beğenmiş.,Print,NA,1744989521866,,h,undefined,,şapka,atkı,exp,Leyla eski çarşıda atkılık ve şapkalık bir askı beğenmiş.,29,3,CO994419,NULL
1744990164,f7687c85e12cb15e1ecb989eac8fd70d,PennController,75,0,exp,NULL,Scale,scale,Choice,kötü,1744989527755,,h,undefined,,şapka,atkı,exp,Leyla eski çarşıda atkılık ve şapkalık bir askı beğenmiş.,29,3,CO994419,NULL
1744990164,f7687c85e12cb15e1ecb989eac8fd70d,PennController,75,0,exp,NULL,PennController,73,_Trial_,End,1744989528466,,h,undefined,,şapka,atkı,exp,Leyla eski çarşıda atkılık ve şapkalık bir askı beğenmiş.,29,3,CO994419,NULL
1744990164,f7687c85e12cb15e1ecb989eac8fd70d,PennController,19,0,filler,NULL,PennController,17,_Trial_,Start,1744989528467,Evet,ungram,undefined,Cümlede 'duymak' kelimesi geçti mi?,,,filler,Zabıtalar işportacının ceza aldıklarına duydu.,30,111,CO994419,NULL
1744990164,f7687c85e12cb15e1ecb989eac8fd70d,PennController,19,0,filler,NULL,PennController,17,_Header_,Start,1744989528467,Evet,ungram,undefined,Cümlede 'duymak' kelimesi geçti mi?,,,filler,Zabıtalar işportacının ceza aldıklarına duydu.,30,111,CO994419,NULL
1744990164,f7687c85e12cb15e1ecb989eac8fd70d,PennController,19,0,filler,NULL,PennController,17,_Header_,End,1744989528467,Evet,ungram,undefined,Cümlede 'duymak' kelimesi geçti mi?,,,filler,Zabıtalar işportacının ceza aldıklarına duydu.,30,111,CO994419,NULL
1744990164,f7687c85e12cb15e1ecb989eac8fd70d,PennController,19,0,filler,NULL,Text,Zabıtalar işportacının ceza aldıklarına duydu.,Print,NA,1744989528467,Evet,ungram,undefined,Cümlede 'duymak' kelimesi geçti mi?,,,filler,Zabıtalar işportacının ceza aldıklarına duydu.,30,111,CO994419,NULL
1744990164,f7687c85e12cb15e1ecb989eac8fd70d,PennController,19,0,filler,NULL,Scale,scale,Choice,oldukça kötü,1744989532492,Evet,ungram,undefined,Cümlede 'duymak' kelimesi geçti mi?,,,filler,Zabıtalar işportacının ceza aldıklarına duydu.,30,111,CO994419,NULL
1744990164,f7687c85e12cb15e1ecb989eac8fd70d,PennController,19,0,filler,NULL,Text,questionasked,Print,NA,1744989533389,Evet,ungram,undefined,Cümlede 'duymak' kelimesi geçti mi?,,,filler,Zabıtalar işportacının ceza aldıklarına duydu.,30,111,CO994419,NULL
1744990164,f7687c85e12cb15e1ecb989eac8fd70d,PennController,19,0,filler,NULL,Scale,answer,Choice,Evet,1744989534472,Evet,ungram,undefined,Cümlede 'duymak' kelimesi geçti mi?,,,filler,Zabıtalar işportacının ceza aldıklarına duydu.,30,111,CO994419,NULL
1744990164,f7687c85e12cb15e1ecb989eac8fd70d,PennController,19,0,filler,NULL,Scale,answer,Evet,checked,1744989534892,Evet,ungram,undefined,Cümlede 'duymak' kelimesi geçti mi?,,,filler,Zabıtalar işportacının ceza aldıklarına duydu.,30,111,CO994419,Status
1744990164,f7687c85e12cb15e1ecb989eac8fd70d,PennController,19,0,filler,NULL,Scale,answer,Hayir,unchecked,1744989534892,Evet,ungram,undefined,Cümlede 'duymak' kelimesi geçti mi?,,,filler,Zabıtalar işportacının ceza aldıklarına duydu.,30,111,CO994419,Status
1744990164,f7687c85e12cb15e1ecb989eac8fd70d,PennController,19,0,filler,NULL,PennController,17,_Trial_,End,1744989534892,Evet,ungram,undefined,Cümlede 'duymak' kelimesi geçti mi?,,,filler,Zabıtalar işportacının ceza aldıklarına duydu.,30,111,CO994419,NULL
1744990164,f7687c85e12cb15e1ecb989eac8fd70d,PennController,36,0,filler,NULL,PennController,34,_Trial_,Start,1744989534893,,gram,undefined,,,,filler,Yeni düzenlemeler vatandaşları ve bakanları pek mutlu etmedi.,31,204,CO994419,NULL
1744990164,f7687c85e12cb15e1ecb989eac8fd70d,PennController,36,0,filler,NULL,PennController,34,_Header_,Start,1744989534893,,gram,undefined,,,,filler,Yeni düzenlemeler vatandaşları ve bakanları pek mutlu etmedi.,31,204,CO994419,NULL
1744990164,f7687c85e12cb15e1ecb989eac8fd70d,PennController,36,0,filler,NULL,PennController,34,_Header_,End,1744989534893,,gram,undefined,,,,filler,Yeni düzenlemeler vatandaşları ve bakanları pek mutlu etmedi.,31,204,CO994419,NULL
1744990164,f7687c85e12cb15e1ecb989eac8fd70d,PennController,36,0,filler,NULL,Text,Yeni düzenlemeler vatandaşları ve bakanları pek mutlu etmedi.,Print,NA,1744989534893,,gram,undefined,,,,filler,Yeni düzenlemeler vatandaşları ve bakanları pek mutlu etmedi.,31,204,CO994419,NULL
1744990164,f7687c85e12cb15e1ecb989eac8fd70d,PennController,36,0,filler,NULL,Scale,scale,Choice,oldukça iyi,1744989539108,,gram,undefined,,,,filler,Yeni düzenlemeler vatandaşları ve bakanları pek mutlu etmedi.,31,204,CO994419,NULL
1744990164,f7687c85e12cb15e1ecb989eac8fd70d,PennController,36,0,filler,NULL,PennController,34,_Trial_,End,1744989540498,,gram,undefined,,,,filler,Yeni düzenlemeler vatandaşları ve bakanları pek mutlu etmedi.,31,204,CO994419,NULL
1744990164,f7687c85e12cb15e1ecb989eac8fd70d,PennController,101,0,exp,NULL,PennController,99,_Trial_,Start,1744989540498,,f,undefined,,peri,ejderha,exp,Melis çocuk kitabı için ejderhasız ve perisiz bir bölüm yazdı.,32,29,CO994419,NULL
1744990164,f7687c85e12cb15e1ecb989eac8fd70d,PennController,101,0,exp,NULL,PennController,99,_Header_,Start,1744989540498,,f,undefined,,peri,ejderha,exp,Melis çocuk kitabı için ejderhasız ve perisiz bir bölüm yazdı.,32,29,CO994419,NULL
1744990164,f7687c85e12cb15e1ecb989eac8fd70d,PennController,101,0,exp,NULL,PennController,99,_Header_,End,1744989540499,,f,undefined,,peri,ejderha,exp,Melis çocuk kitabı için ejderhasız ve perisiz bir bölüm yazdı.,32,29,CO994419,NULL
1744990164,f7687c85e12cb15e1ecb989eac8fd70d,PennController,101,0,exp,NULL,Text,Melis çocuk kitabı için ejderhasız ve perisiz bir bölüm yazdı.,Print,NA,1744989540499,,f,undefined,,peri,ejderha,exp,Melis çocuk kitabı için ejderhasız ve perisiz bir bölüm yazdı.,32,29,CO994419,NULL
1744990164,f7687c85e12cb15e1ecb989eac8fd70d,PennController,101,0,exp,NULL,Scale,scale,Choice,oldukça iyi,1744989543492,,f,undefined,,peri,ejderha,exp,Melis çocuk kitabı için ejderhasız ve perisiz bir bölüm yazdı.,32,29,CO994419,NULL
1744990164,f7687c85e12cb15e1ecb989eac8fd70d,PennController,101,0,exp,NULL,PennController,99,_Trial_,End,1744989544582,,f,undefined,,peri,ejderha,exp,Melis çocuk kitabı için ejderhasız ve perisiz bir bölüm yazdı.,32,29,CO994419,NULL
1744990164,f7687c85e12cb15e1ecb989eac8fd70d,PennController,70,0,filler,NULL,PennController,68,_Trial_,Start,1744989544583,,gram,undefined,,,,filler,Leyla yıkama ve kurutma makinasının önündeki sırayı görünce geri döndü.,33,238,CO994419,NULL
1744990164,f7687c85e12cb15e1ecb989eac8fd70d,PennController,70,0,filler,NULL,PennController,68,_Header_,Start,1744989544583,,gram,undefined,,,,filler,Leyla yıkama ve kurutma makinasının önündeki sırayı görünce geri döndü.,33,238,CO994419,NULL
1744990164,f7687c85e12cb15e1ecb989eac8fd70d,PennController,70,0,filler,NULL,PennController,68,_Header_,End,1744989544583,,gram,undefined,,,,filler,Leyla yıkama ve kurutma makinasının önündeki sırayı görünce geri döndü.,33,238,CO994419,NULL
1744990164,f7687c85e12cb15e1ecb989eac8fd70d,PennController,70,0,filler,NULL,Text,Leyla yıkama ve kurutma makinasının önündeki sırayı görünce geri döndü.,Print,NA,1744989544584,,gram,undefined,,,,filler,Leyla yıkama ve kurutma makinasının önündeki sırayı görünce geri döndü.,33,238,CO994419,NULL
1744990164,f7687c85e12cb15e1ecb989eac8fd70d,PennController,70,0,filler,NULL,Scale,scale,Choice,oldukça iyi,1744989549013,,gram,undefined,,,,filler,Leyla yıkama ve kurutma makinasının önündeki sırayı görünce geri döndü.,33,238,CO994419,NULL
1744990164,f7687c85e12cb15e1ecb989eac8fd70d,PennController,70,0,filler,NULL,PennController,68,_Trial_,End,1744989549837,,gram,undefined,,,,filler,Leyla yıkama ve kurutma makinasının önündeki sırayı görünce geri döndü.,33,238,CO994419,NULL
1744990164,f7687c85e12cb15e1ecb989eac8fd70d,PennController,63,0,filler,NULL,PennController,61,_Trial_,Start,1744989549837,,gram,undefined,,,,filler,Zehra yeni evi için annesiyle çaydanlık ve tava seti almaya gitti.,34,231,CO994419,NULL
1744990164,f7687c85e12cb15e1ecb989eac8fd70d,PennController,63,0,filler,NULL,PennController,61,_Header_,Start,1744989549837,,gram,undefined,,,,filler,Zehra yeni evi için annesiyle çaydanlık ve tava seti almaya gitti.,34,231,CO994419,NULL
1744990164,f7687c85e12cb15e1ecb989eac8fd70d,PennController,63,0,filler,NULL,PennController,61,_Header_,End,1744989549838,,gram,undefined,,,,filler,Zehra yeni evi için annesiyle çaydanlık ve tava seti almaya gitti.,34,231,CO994419,NULL
1744990164,f7687c85e12cb15e1ecb989eac8fd70d,PennController,63,0,filler,NULL,Text,Zehra yeni evi için annesiyle çaydanlık ve tava seti almaya gitti.,Print,NA,1744989549838,,gram,undefined,,,,filler,Zehra yeni evi için annesiyle çaydanlık ve tava seti almaya gitti.,34,231,CO994419,NULL
1744990164,f7687c85e12cb15e1ecb989eac8fd70d,PennController,63,0,filler,NULL,Scale,scale,Choice,oldukça iyi,1744989555395,,gram,undefined,,,,filler,Zehra yeni evi için annesiyle çaydanlık ve tava seti almaya gitti.,34,231,CO994419,NULL
1744990164,f7687c85e12cb15e1ecb989eac8fd70d,PennController,63,0,filler,NULL,PennController,61,_Trial_,End,1744989556427,,gram,undefined,,,,filler,Zehra yeni evi için annesiyle çaydanlık ve tava seti almaya gitti.,34,231,CO994419,NULL
1744990164,f7687c85e12cb15e1ecb989eac8fd70d,PennController,87,0,exp,NULL,PennController,85,_Trial_,Start,1744989556428,,d,undefined,,bardak,sürahi,exp,Deniz misafir beklerken sürahili ve bardaklı bir konsept hazırladı.,35,15,CO994419,NULL
1744990164,f7687c85e12cb15e1ecb989eac8fd70d,PennController,87,0,exp,NULL,PennController,85,_Header_,Start,1744989556428,,d,undefined,,bardak,sürahi,exp,Deniz misafir beklerken sürahili ve bardaklı bir konsept hazırladı.,35,15,CO994419,NULL
1744990164,f7687c85e12cb15e1ecb989eac8fd70d,PennController,87,0,exp,NULL,PennController,85,_Header_,End,1744989556428,,d,undefined,,bardak,sürahi,exp,Deniz misafir beklerken sürahili ve bardaklı bir konsept hazırladı.,35,15,CO994419,NULL
1744990164,f7687c85e12cb15e1ecb989eac8fd70d,PennController,87,0,exp,NULL,Text,Deniz misafir beklerken sürahili ve bardaklı bir konsept hazırladı.,Print,NA,1744989556429,,d,undefined,,bardak,sürahi,exp,Deniz misafir beklerken sürahili ve bardaklı bir konsept hazırladı.,35,15,CO994419,NULL
1744990164,f7687c85e12cb15e1ecb989eac8fd70d,PennController,87,0,exp,NULL,Scale,scale,Choice,iyi,1744989563134,,d,undefined,,bardak,sürahi,exp,Deniz misafir beklerken sürahili ve bardaklı bir konsept hazırladı.,35,15,CO994419,NULL
1744990164,f7687c85e12cb15e1ecb989eac8fd70d,PennController,87,0,exp,NULL,PennController,85,_Trial_,End,1744989566185,,d,undefined,,bardak,sürahi,exp,Deniz misafir beklerken sürahili ve bardaklı bir konsept hazırladı.,35,15,CO994419,NULL
1744990164,f7687c85e12cb15e1ecb989eac8fd70d,PennController,53,0,filler,NULL,PennController,51,_Trial_,Start,1744989566186,Hayır,gram,undefined,Cümlede 'alet' kelimesi geçti mi?,,,filler,Tamir çantasındaki araç ve gereçler doğru düzgün çalışmıyor.,36,221,CO994419,NULL
1744990164,f7687c85e12cb15e1ecb989eac8fd70d,PennController,53,0,filler,NULL,PennController,51,_Header_,Start,1744989566186,Hayır,gram,undefined,Cümlede 'alet' kelimesi geçti mi?,,,filler,Tamir çantasındaki araç ve gereçler doğru düzgün çalışmıyor.,36,221,CO994419,NULL
1744990164,f7687c85e12cb15e1ecb989eac8fd70d,PennController,53,0,filler,NULL,PennController,51,_Header_,End,1744989566186,Hayır,gram,undefined,Cümlede 'alet' kelimesi geçti mi?,,,filler,Tamir çantasındaki araç ve gereçler doğru düzgün çalışmıyor.,36,221,CO994419,NULL
1744990164,f7687c85e12cb15e1ecb989eac8fd70d,PennController,53,0,filler,NULL,Text,Tamir çantasındaki araç ve gereçler doğru düzgün çalışmıyor.,Print,NA,1744989566187,Hayır,gram,undefined,Cümlede 'alet' kelimesi geçti mi?,,,filler,Tamir çantasındaki araç ve gereçler doğru düzgün çalışmıyor.,36,221,CO994419,NULL
1744990164,f7687c85e12cb15e1ecb989eac8fd70d,PennController,53,0,filler,NULL,Scale,scale,Choice,oldukça iyi,1744989573554,Hayır,gram,undefined,Cümlede 'alet' kelimesi geçti mi?,,,filler,Tamir çantasındaki araç ve gereçler doğru düzgün çalışmıyor.,36,221,CO994419,NULL
1744990164,f7687c85e12cb15e1ecb989eac8fd70d,PennController,53,0,filler,NULL,Text,questionasked,Print,NA,1744989574201,Hayır,gram,undefined,Cümlede 'alet' kelimesi geçti mi?,,,filler,Tamir çantasındaki araç ve gereçler doğru düzgün çalışmıyor.,36,221,CO994419,NULL
1744990164,f7687c85e12cb15e1ecb989eac8fd70d,PennController,53,0,filler,NULL,Scale,answer,Choice,Hayir,1744989575935,Hayır,gram,undefined,Cümlede 'alet' kelimesi geçti mi?,,,filler,Tamir çantasındaki araç ve gereçler doğru düzgün çalışmıyor.,36,221,CO994419,NULL
1744990164,f7687c85e12cb15e1ecb989eac8fd70d,PennController,53,0,filler,NULL,Scale,answer,Evet,unchecked,1744989576525,Hayır,gram,undefined,Cümlede 'alet' kelimesi geçti mi?,,,filler,Tamir çantasındaki araç ve gereçler doğru düzgün çalışmıyor.,36,221,CO994419,Status
1744990164,f7687c85e12cb15e1ecb989eac8fd70d,PennController,53,0,filler,NULL,Scale,answer,Hayir,checked,1744989576525,Hayır,gram,undefined,Cümlede 'alet' kelimesi geçti mi?,,,filler,Tamir çantasındaki araç ve gereçler doğru düzgün çalışmıyor.,36,221,CO994419,Status
1744990164,f7687c85e12cb15e1ecb989eac8fd70d,PennController,53,0,filler,NULL,PennController,51,_Trial_,End,1744989576525,Hayır,gram,undefined,Cümlede 'alet' kelimesi geçti mi?,,,filler,Tamir çantasındaki araç ve gereçler doğru düzgün çalışmıyor.,36,221,CO994419,NULL
1744990164,f7687c85e12cb15e1ecb989eac8fd70d,PennController,13,0,filler,NULL,PennController,11,_Trial_,Start,1744989576526,Hayır,ungram,undefined,İşten kovacak mı?,,,filler,Mehmet Ayça'ya dün akşam dedi ki birbirini işe alacak.,37,105,CO994419,NULL
1744990164,f7687c85e12cb15e1ecb989eac8fd70d,PennController,13,0,filler,NULL,PennController,11,_Header_,Start,1744989576526,Hayır,ungram,undefined,İşten kovacak mı?,,,filler,Mehmet Ayça'ya dün akşam dedi ki birbirini işe alacak.,37,105,CO994419,NULL
1744990164,f7687c85e12cb15e1ecb989eac8fd70d,PennController,13,0,filler,NULL,PennController,11,_Header_,End,1744989576526,Hayır,ungram,undefined,İşten kovacak mı?,,,filler,Mehmet Ayça'ya dün akşam dedi ki birbirini işe alacak.,37,105,CO994419,NULL
1744990164,f7687c85e12cb15e1ecb989eac8fd70d,PennController,13,0,filler,NULL,Text,Mehmet Ayça'ya dün akşam dedi ki birbirini işe alacak.,Print,NA,1744989576527,Hayır,ungram,undefined,İşten kovacak mı?,,,filler,Mehmet Ayça'ya dün akşam dedi ki birbirini işe alacak.,37,105,CO994419,NULL
1744990164,f7687c85e12cb15e1ecb989eac8fd70d,PennController,13,0,filler,NULL,Scale,scale,Choice,oldukça kötü,1744989581880,Hayır,ungram,undefined,İşten kovacak mı?,,,filler,Mehmet Ayça'ya dün akşam dedi ki birbirini işe alacak.,37,105,CO994419,NULL
1744990164,f7687c85e12cb15e1ecb989eac8fd70d,PennController,13,0,filler,NULL,Text,questionasked,Print,NA,1744989582553,Hayır,ungram,undefined,İşten kovacak mı?,,,filler,Mehmet Ayça'ya dün akşam dedi ki birbirini işe alacak.,37,105,CO994419,NULL
1744990164,f7687c85e12cb15e1ecb989eac8fd70d,PennController,13,0,filler,NULL,Scale,answer,Choice,Hayir,1744989584987,Hayır,ungram,undefined,İşten kovacak mı?,,,filler,Mehmet Ayça'ya dün akşam dedi ki birbirini işe alacak.,37,105,CO994419,NULL
1744990164,f7687c85e12cb15e1ecb989eac8fd70d,PennController,13,0,filler,NULL,Scale,answer,Evet,unchecked,1744989585546,Hayır,ungram,undefined,İşten kovacak mı?,,,filler,Mehmet Ayça'ya dün akşam dedi ki birbirini işe alacak.,37,105,CO994419,Status
1744990164,f7687c85e12cb15e1ecb989eac8fd70d,PennController,13,0,filler,NULL,Scale,answer,Hayir,checked,1744989585546,Hayır,ungram,undefined,İşten kovacak mı?,,,filler,Mehmet Ayça'ya dün akşam dedi ki birbirini işe alacak.,37,105,CO994419,Status
1744990164,f7687c85e12cb15e1ecb989eac8fd70d,PennController,13,0,filler,NULL,PennController,11,_Trial_,End,1744989585546,Hayır,ungram,undefined,İşten kovacak mı?,,,filler,Mehmet Ayça'ya dün akşam dedi ki birbirini işe alacak.,37,105,CO994419,NULL
1744990164,f7687c85e12cb15e1ecb989eac8fd70d,PennController,83,0,exp,NULL,PennController,81,_Trial_,Start,1744989585548,,h,undefined,,teknoloji,bilim,exp,Ahmet yabancı bir üniversitede bilimlik ve teknolojilik bir dergi çıkardı.,38,11,CO994419,NULL
1744990164,f7687c85e12cb15e1ecb989eac8fd70d,PennController,83,0,exp,NULL,PennController,81,_Header_,Start,1744989585548,,h,undefined,,teknoloji,bilim,exp,Ahmet yabancı bir üniversitede bilimlik ve teknolojilik bir dergi çıkardı.,38,11,CO994419,NULL
1744990164,f7687c85e12cb15e1ecb989eac8fd70d,PennController,83,0,exp,NULL,PennController,81,_Header_,End,1744989585548,,h,undefined,,teknoloji,bilim,exp,Ahmet yabancı bir üniversitede bilimlik ve teknolojilik bir dergi çıkardı.,38,11,CO994419,NULL
1744990164,f7687c85e12cb15e1ecb989eac8fd70d,PennController,83,0,exp,NULL,Text,Ahmet yabancı bir üniversitede bilimlik ve teknolojilik bir dergi çıkardı.,Print,NA,1744989585548,,h,undefined,,teknoloji,bilim,exp,Ahmet yabancı bir üniversitede bilimlik ve teknolojilik bir dergi çıkardı.,38,11,CO994419,NULL
1744990164,f7687c85e12cb15e1ecb989eac8fd70d,PennController,83,0,exp,NULL,Scale,scale,Choice,oldukça kötü,1744989592175,,h,undefined,,teknoloji,bilim,exp,Ahmet yabancı bir üniversitede bilimlik ve teknolojilik bir dergi çıkardı.,38,11,CO994419,NULL
1744990164,f7687c85e12cb15e1ecb989eac8fd70d,PennController,83,0,exp,NULL,PennController,81,_Trial_,End,1744989592882,,h,undefined,,teknoloji,bilim,exp,Ahmet yabancı bir üniversitede bilimlik ve teknolojilik bir dergi çıkardı.,38,11,CO994419,NULL
1744990164,f7687c85e12cb15e1ecb989eac8fd70d,PennController,15,0,filler,NULL,PennController,13,_Trial_,Start,1744989592883,Evet,ungram,undefined,Büyük emekler verilmiş mi?,,,filler,Bu işyeri yıllarca büyük emekler verip çalıştığımdır.,39,107,CO994419,NULL
1744990164,f7687c85e12cb15e1ecb989eac8fd70d,PennController,15,0,filler,NULL,PennController,13,_Header_,Start,1744989592883,Evet,ungram,undefined,Büyük emekler verilmiş mi?,,,filler,Bu işyeri yıllarca büyük emekler verip çalıştığımdır.,39,107,CO994419,NULL
1744990164,f7687c85e12cb15e1ecb989eac8fd70d,PennController,15,0,filler,NULL,PennController,13,_Header_,End,1744989592883,Evet,ungram,undefined,Büyük emekler verilmiş mi?,,,filler,Bu işyeri yıllarca büyük emekler verip çalıştığımdır.,39,107,CO994419,NULL
1744990164,f7687c85e12cb15e1ecb989eac8fd70d,PennController,15,0,filler,NULL,Text,Bu işyeri yıllarca büyük emekler verip çalıştığımdır.,Print,NA,1744989592883,Evet,ungram,undefined,Büyük emekler verilmiş mi?,,,filler,Bu işyeri yıllarca büyük emekler verip çalıştığımdır.,39,107,CO994419,NULL
1744990164,f7687c85e12cb15e1ecb989eac8fd70d,PennController,15,0,filler,NULL,Scale,scale,Choice,iyi sayılır,1744989597080,Evet,ungram,undefined,Büyük emekler verilmiş mi?,,,filler,Bu işyeri yıllarca büyük emekler verip çalıştığımdır.,39,107,CO994419,NULL
1744990164,f7687c85e12cb15e1ecb989eac8fd70d,PennController,15,0,filler,NULL,Text,questionasked,Print,NA,1744989599251,Evet,ungram,undefined,Büyük emekler verilmiş mi?,,,filler,Bu işyeri yıllarca büyük emekler verip çalıştığımdır.,39,107,CO994419,NULL
1744990164,f7687c85e12cb15e1ecb989eac8fd70d,PennController,15,0,filler,NULL,Scale,answer,Choice,Evet,1744989600472,Evet,ungram,undefined,Büyük emekler verilmiş mi?,,,filler,Bu işyeri yıllarca büyük emekler verip çalıştığımdır.,39,107,CO994419,NULL
1744990164,f7687c85e12cb15e1ecb989eac8fd70d,PennController,15,0,filler,NULL,Scale,answer,Evet,checked,1744989601514,Evet,ungram,undefined,Büyük emekler verilmiş mi?,,,filler,Bu işyeri yıllarca büyük emekler verip çalıştığımdır.,39,107,CO994419,Status
1744990164,f7687c85e12cb15e1ecb989eac8fd70d,PennController,15,0,filler,NULL,Scale,answer,Hayir,unchecked,1744989601514,Evet,ungram,undefined,Büyük emekler verilmiş mi?,,,filler,Bu işyeri yıllarca büyük emekler verip çalıştığımdır.,39,107,CO994419,Status
1744990164,f7687c85e12cb15e1ecb989eac8fd70d,PennController,15,0,filler,NULL,PennController,13,_Trial_,End,1744989601514,Evet,ungram,undefined,Büyük emekler verilmiş mi?,,,filler,Bu işyeri yıllarca büyük emekler verip çalıştığımdır.,39,107,CO994419,NULL
1744990164,f7687c85e12cb15e1ecb989eac8fd70d,PennController,66,0,filler,NULL,PennController,64,_Trial_,Start,1744989601515,,gram,undefined,,,,filler,Derya geçen ay peşinat ve depozito ödemeden yeni bir ev kiralamış.,40,234,CO994419,NULL
1744990164,f7687c85e12cb15e1ecb989eac8fd70d,PennController,66,0,filler,NULL,PennController,64,_Header_,Start,1744989601515,,gram,undefined,,,,filler,Derya geçen ay peşinat ve depozito ödemeden yeni bir ev kiralamış.,40,234,CO994419,NULL
1744990164,f7687c85e12cb15e1ecb989eac8fd70d,PennController,66,0,filler,NULL,PennController,64,_Header_,End,1744989601515,,gram,undefined,,,,filler,Derya geçen ay peşinat ve depozito ödemeden yeni bir ev kiralamış.,40,234,CO994419,NULL
1744990164,f7687c85e12cb15e1ecb989eac8fd70d,PennController,66,0,filler,NULL,Text,Derya geçen ay peşinat ve depozito ödemeden yeni bir ev kiralamış.,Print,NA,1744989601516,,gram,undefined,,,,filler,Derya geçen ay peşinat ve depozito ödemeden yeni bir ev kiralamış.,40,234,CO994419,NULL
1744990164,f7687c85e12cb15e1ecb989eac8fd70d,PennController,66,0,filler,NULL,Scale,scale,Choice,oldukça iyi,1744989605945,,gram,undefined,,,,filler,Derya geçen ay peşinat ve depozito ödemeden yeni bir ev kiralamış.,40,234,CO994419,NULL
1744990164,f7687c85e12cb15e1ecb989eac8fd70d,PennController,66,0,filler,NULL,PennController,64,_Trial_,End,1744989606839,,gram,undefined,,,,filler,Derya geçen ay peşinat ve depozito ödemeden yeni bir ev kiralamış.,40,234,CO994419,NULL
1744990164,f7687c85e12cb15e1ecb989eac8fd70d,PennController,88,0,exp,NULL,PennController,86,_Trial_,Start,1744989606840,,c,undefined,,fabrika,çiftlik,exp,Okan üniversite yıllarında çiftlik ve fabrikalı bir işletme kurdu.,41,16,CO994419,NULL
1744990164,f7687c85e12cb15e1ecb989eac8fd70d,PennController,88,0,exp,NULL,PennController,86,_Header_,Start,1744989606840,,c,undefined,,fabrika,çiftlik,exp,Okan üniversite yıllarında çiftlik ve fabrikalı bir işletme kurdu.,41,16,CO994419,NULL
1744990164,f7687c85e12cb15e1ecb989eac8fd70d,PennController,88,0,exp,NULL,PennController,86,_Header_,End,1744989606840,,c,undefined,,fabrika,çiftlik,exp,Okan üniversite yıllarında çiftlik ve fabrikalı bir işletme kurdu.,41,16,CO994419,NULL
1744990164,f7687c85e12cb15e1ecb989eac8fd70d,PennController,88,0,exp,NULL,Text,Okan üniversite yıllarında çiftlik ve fabrikalı bir işletme kurdu.,Print,NA,1744989606840,,c,undefined,,fabrika,çiftlik,exp,Okan üniversite yıllarında çiftlik ve fabrikalı bir işletme kurdu.,41,16,CO994419,NULL
1744990164,f7687c85e12cb15e1ecb989eac8fd70d,PennController,88,0,exp,NULL,Scale,scale,Choice,iyi sayılır,1744989616727,,c,undefined,,fabrika,çiftlik,exp,Okan üniversite yıllarında çiftlik ve fabrikalı bir işletme kurdu.,41,16,CO994419,NULL
1744990164,f7687c85e12cb15e1ecb989eac8fd70d,PennController,88,0,exp,NULL,PennController,86,_Trial_,End,1744989617460,,c,undefined,,fabrika,çiftlik,exp,Okan üniversite yıllarında çiftlik ve fabrikalı bir işletme kurdu.,41,16,CO994419,NULL
1744990164,f7687c85e12cb15e1ecb989eac8fd70d,PennController,50,0,filler,NULL,PennController,48,_Trial_,Start,1744989617461,,gram,undefined,,,,filler,Yolcular kaptandan ve mürettebattan bir istekte bulunmaya çekiniyor.,42,218,CO994419,NULL
1744990164,f7687c85e12cb15e1ecb989eac8fd70d,PennController,50,0,filler,NULL,PennController,48,_Header_,Start,1744989617461,,gram,undefined,,,,filler,Yolcular kaptandan ve mürettebattan bir istekte bulunmaya çekiniyor.,42,218,CO994419,NULL
1744990164,f7687c85e12cb15e1ecb989eac8fd70d,PennController,50,0,filler,NULL,PennController,48,_Header_,End,1744989617461,,gram,undefined,,,,filler,Yolcular kaptandan ve mürettebattan bir istekte bulunmaya çekiniyor.,42,218,CO994419,NULL
1744990164,f7687c85e12cb15e1ecb989eac8fd70d,PennController,50,0,filler,NULL,Text,Yolcular kaptandan ve mürettebattan bir istekte bulunmaya çekiniyor.,Print,NA,1744989617462,,gram,undefined,,,,filler,Yolcular kaptandan ve mürettebattan bir istekte bulunmaya çekiniyor.,42,218,CO994419,NULL
1744990164,f7687c85e12cb15e1ecb989eac8fd70d,PennController,50,0,filler,NULL,Scale,scale,Choice,oldukça iyi,1744989622210,,gram,undefined,,,,filler,Yolcular kaptandan ve mürettebattan bir istekte bulunmaya çekiniyor.,42,218,CO994419,NULL
1744990164,f7687c85e12cb15e1ecb989eac8fd70d,PennController,50,0,filler,NULL,PennController,48,_Trial_,End,1744989623624,,gram,undefined,,,,filler,Yolcular kaptandan ve mürettebattan bir istekte bulunmaya çekiniyor.,42,218,CO994419,NULL
1744990164,f7687c85e12cb15e1ecb989eac8fd70d,PennController,51,0,filler,NULL,PennController,49,_Trial_,Start,1744989623625,,gram,undefined,,,,filler,Toplantı boyunca müdürlerde ve öğretmenlerde gergin bir hava vardı.,43,219,CO994419,NULL
1744990164,f7687c85e12cb15e1ecb989eac8fd70d,PennController,51,0,filler,NULL,PennController,49,_Header_,Start,1744989623625,,gram,undefined,,,,filler,Toplantı boyunca müdürlerde ve öğretmenlerde gergin bir hava vardı.,43,219,CO994419,NULL
1744990164,f7687c85e12cb15e1ecb989eac8fd70d,PennController,51,0,filler,NULL,PennController,49,_Header_,End,1744989623625,,gram,undefined,,,,filler,Toplantı boyunca müdürlerde ve öğretmenlerde gergin bir hava vardı.,43,219,CO994419,NULL
1744990164,f7687c85e12cb15e1ecb989eac8fd70d,PennController,51,0,filler,NULL,Text,Toplantı boyunca müdürlerde ve öğretmenlerde gergin bir hava vardı.,Print,NA,1744989623626,,gram,undefined,,,,filler,Toplantı boyunca müdürlerde ve öğretmenlerde gergin bir hava vardı.,43,219,CO994419,NULL
1744990164,f7687c85e12cb15e1ecb989eac8fd70d,PennController,51,0,filler,NULL,Scale,scale,Choice,oldukça iyi,1744989629305,,gram,undefined,,,,filler,Toplantı boyunca müdürlerde ve öğretmenlerde gergin bir hava vardı.,43,219,CO994419,NULL
1744990164,f7687c85e12cb15e1ecb989eac8fd70d,PennController,51,0,filler,NULL,PennController,49,_Trial_,End,1744989630283,,gram,undefined,,,,filler,Toplantı boyunca müdürlerde ve öğretmenlerde gergin bir hava vardı.,43,219,CO994419,NULL
1744990164,f7687c85e12cb15e1ecb989eac8fd70d,PennController,84,0,exp,NULL,PennController,82,_Trial_,Start,1744989630284,,g,undefined,,bahçe,ev,exp,Merve aile mirasıyla ev ve bahçelik bir arsa satın aldı.,44,12,CO994419,NULL
1744990164,f7687c85e12cb15e1ecb989eac8fd70d,PennController,84,0,exp,NULL,PennController,82,_Header_,Start,1744989630284,,g,undefined,,bahçe,ev,exp,Merve aile mirasıyla ev ve bahçelik bir arsa satın aldı.,44,12,CO994419,NULL
1744990164,f7687c85e12cb15e1ecb989eac8fd70d,PennController,84,0,exp,NULL,PennController,82,_Header_,End,1744989630284,,g,undefined,,bahçe,ev,exp,Merve aile mirasıyla ev ve bahçelik bir arsa satın aldı.,44,12,CO994419,NULL
1744990164,f7687c85e12cb15e1ecb989eac8fd70d,PennController,84,0,exp,NULL,Text,Merve aile mirasıyla ev ve bahçelik bir arsa satın aldı.,Print,NA,1744989630284,,g,undefined,,bahçe,ev,exp,Merve aile mirasıyla ev ve bahçelik bir arsa satın aldı.,44,12,CO994419,NULL
1744990164,f7687c85e12cb15e1ecb989eac8fd70d,PennController,84,0,exp,NULL,Scale,scale,Choice,kötü,1744989636813,,g,undefined,,bahçe,ev,exp,Merve aile mirasıyla ev ve bahçelik bir arsa satın aldı.,44,12,CO994419,NULL
1744990164,f7687c85e12cb15e1ecb989eac8fd70d,PennController,84,0,exp,NULL,PennController,82,_Trial_,End,1744989637705,,g,undefined,,bahçe,ev,exp,Merve aile mirasıyla ev ve bahçelik bir arsa satın aldı.,44,12,CO994419,NULL
1744990164,f7687c85e12cb15e1ecb989eac8fd70d,PennController,59,0,filler,NULL,PennController,57,_Trial_,Start,1744989637706,Evet,gram,undefined,Ayşe eksikleri fark etmiş mi?,,,filler,Ayşe dikiş kutusunda iğne ve iplik kalmadığını daha yeni fark etti.,45,227,CO994419,NULL
1744990164,f7687c85e12cb15e1ecb989eac8fd70d,PennController,59,0,filler,NULL,PennController,57,_Header_,Start,1744989637706,Evet,gram,undefined,Ayşe eksikleri fark etmiş mi?,,,filler,Ayşe dikiş kutusunda iğne ve iplik kalmadığını daha yeni fark etti.,45,227,CO994419,NULL
1744990164,f7687c85e12cb15e1ecb989eac8fd70d,PennController,59,0,filler,NULL,PennController,57,_Header_,End,1744989637706,Evet,gram,undefined,Ayşe eksikleri fark etmiş mi?,,,filler,Ayşe dikiş kutusunda iğne ve iplik kalmadığını daha yeni fark etti.,45,227,CO994419,NULL
1744990164,f7687c85e12cb15e1ecb989eac8fd70d,PennController,59,0,filler,NULL,Text,Ayşe dikiş kutusunda iğne ve iplik kalmadığını daha yeni fark etti.,Print,NA,1744989637707,Evet,gram,undefined,Ayşe eksikleri fark etmiş mi?,,,filler,Ayşe dikiş kutusunda iğne ve iplik kalmadığını daha yeni fark etti.,45,227,CO994419,NULL
1744990164,f7687c85e12cb15e1ecb989eac8fd70d,PennController,59,0,filler,NULL,Scale,scale,Choice,oldukça iyi,1744989641758,Evet,gram,undefined,Ayşe eksikleri fark etmiş mi?,,,filler,Ayşe dikiş kutusunda iğne ve iplik kalmadığını daha yeni fark etti.,45,227,CO994419,NULL
1744990164,f7687c85e12cb15e1ecb989eac8fd70d,PennController,59,0,filler,NULL,Text,questionasked,Print,NA,1744989642879,Evet,gram,undefined,Ayşe eksikleri fark etmiş mi?,,,filler,Ayşe dikiş kutusunda iğne ve iplik kalmadığını daha yeni fark etti.,45,227,CO994419,NULL
1744990164,f7687c85e12cb15e1ecb989eac8fd70d,PennController,59,0,filler,NULL,Scale,answer,Choice,Evet,1744989645404,Evet,gram,undefined,Ayşe eksikleri fark etmiş mi?,,,filler,Ayşe dikiş kutusunda iğne ve iplik kalmadığını daha yeni fark etti.,45,227,CO994419,NULL
1744990164,f7687c85e12cb15e1ecb989eac8fd70d,PennController,59,0,filler,NULL,Scale,answer,Evet,checked,1744989645919,Evet,gram,undefined,Ayşe eksikleri fark etmiş mi?,,,filler,Ayşe dikiş kutusunda iğne ve iplik kalmadığını daha yeni fark etti.,45,227,CO994419,Status
1744990164,f7687c85e12cb15e1ecb989eac8fd70d,PennController,59,0,filler,NULL,Scale,answer,Hayir,unchecked,1744989645919,Evet,gram,undefined,Ayşe eksikleri fark etmiş mi?,,,filler,Ayşe dikiş kutusunda iğne ve iplik kalmadığını daha yeni fark etti.,45,227,CO994419,Status
1744990164,f7687c85e12cb15e1ecb989eac8fd70d,PennController,59,0,filler,NULL,PennController,57,_Trial_,End,1744989645919,Evet,gram,undefined,Ayşe eksikleri fark etmiş mi?,,,filler,Ayşe dikiş kutusunda iğne ve iplik kalmadığını daha yeni fark etti.,45,227,CO994419,NULL
1744990164,f7687c85e12cb15e1ecb989eac8fd70d,PennController,44,0,filler,NULL,PennController,42,_Trial_,Start,1744989645920,,gram,undefined,,,,filler,Mesut çiftlikteki koyunları ve inekleri her gün tek tek sayıyor.,46,212,CO994419,NULL
1744990164,f7687c85e12cb15e1ecb989eac8fd70d,PennController,44,0,filler,NULL,PennController,42,_Header_,Start,1744989645920,,gram,undefined,,,,filler,Mesut çiftlikteki koyunları ve inekleri her gün tek tek sayıyor.,46,212,CO994419,NULL
1744990164,f7687c85e12cb15e1ecb989eac8fd70d,PennController,44,0,filler,NULL,PennController,42,_Header_,End,1744989645921,,gram,undefined,,,,filler,Mesut çiftlikteki koyunları ve inekleri her gün tek tek sayıyor.,46,212,CO994419,NULL
1744990164,f7687c85e12cb15e1ecb989eac8fd70d,PennController,44,0,filler,NULL,Text,Mesut çiftlikteki koyunları ve inekleri her gün tek tek sayıyor.,Print,NA,1744989645921,,gram,undefined,,,,filler,Mesut çiftlikteki koyunları ve inekleri her gün tek tek sayıyor.,46,212,CO994419,NULL
1744990164,f7687c85e12cb15e1ecb989eac8fd70d,PennController,44,0,filler,NULL,Scale,scale,Choice,iyi,1744989655949,,gram,undefined,,,,filler,Mesut çiftlikteki koyunları ve inekleri her gün tek tek sayıyor.,46,212,CO994419,NULL
1744990164,f7687c85e12cb15e1ecb989eac8fd70d,PennController,44,0,filler,NULL,PennController,42,_Trial_,End,1744989656540,,gram,undefined,,,,filler,Mesut çiftlikteki koyunları ve inekleri her gün tek tek sayıyor.,46,212,CO994419,NULL
1744990164,f7687c85e12cb15e1ecb989eac8fd70d,PennController,99,0,exp,NULL,PennController,97,_Trial_,Start,1744989656541,,h,undefined,,çöl,orman,exp,Baran araştırması için ormanlık ve çöllük bir alan çizdi.,47,27,CO994419,NULL
1744990164,f7687c85e12cb15e1ecb989eac8fd70d,PennController,99,0,exp,NULL,PennController,97,_Header_,Start,1744989656541,,h,undefined,,çöl,orman,exp,Baran araştırması için ormanlık ve çöllük bir alan çizdi.,47,27,CO994419,NULL
1744990164,f7687c85e12cb15e1ecb989eac8fd70d,PennController,99,0,exp,NULL,PennController,97,_Header_,End,1744989656541,,h,undefined,,çöl,orman,exp,Baran araştırması için ormanlık ve çöllük bir alan çizdi.,47,27,CO994419,NULL
1744990164,f7687c85e12cb15e1ecb989eac8fd70d,PennController,99,0,exp,NULL,Text,Baran araştırması için ormanlık ve çöllük bir alan çizdi.,Print,NA,1744989656541,,h,undefined,,çöl,orman,exp,Baran araştırması için ormanlık ve çöllük bir alan çizdi.,47,27,CO994419,NULL
1744990164,f7687c85e12cb15e1ecb989eac8fd70d,PennController,99,0,exp,NULL,Scale,scale,Choice,kötü sayılır,1744989683762,,h,undefined,,çöl,orman,exp,Baran araştırması için ormanlık ve çöllük bir alan çizdi.,47,27,CO994419,NULL
1744990164,f7687c85e12cb15e1ecb989eac8fd70d,PennController,99,0,exp,NULL,PennController,97,_Trial_,End,1744989684385,,h,undefined,,çöl,orman,exp,Baran araştırması için ormanlık ve çöllük bir alan çizdi.,47,27,CO994419,NULL
1744990164,f7687c85e12cb15e1ecb989eac8fd70d,PennController,55,0,filler,NULL,PennController,53,_Trial_,Start,1744989684386,Evet,gram,undefined,Cümlede 'sıcak' kelimesi geçti mi?,,,filler,Kahvaltı sofrasına sıcak ve taze ekmek olmadan oturulmaz.,48,223,CO994419,NULL
1744990164,f7687c85e12cb15e1ecb989eac8fd70d,PennController,55,0,filler,NULL,PennController,53,_Header_,Start,1744989684386,Evet,gram,undefined,Cümlede 'sıcak' kelimesi geçti mi?,,,filler,Kahvaltı sofrasına sıcak ve taze ekmek olmadan oturulmaz.,48,223,CO994419,NULL
1744990164,f7687c85e12cb15e1ecb989eac8fd70d,PennController,55,0,filler,NULL,PennController,53,_Header_,End,1744989684387,Evet,gram,undefined,Cümlede 'sıcak' kelimesi geçti mi?,,,filler,Kahvaltı sofrasına sıcak ve taze ekmek olmadan oturulmaz.,48,223,CO994419,NULL
1744990164,f7687c85e12cb15e1ecb989eac8fd70d,PennController,55,0,filler,NULL,Text,Kahvaltı sofrasına sıcak ve taze ekmek olmadan oturulmaz.,Print,NA,1744989684387,Evet,gram,undefined,Cümlede 'sıcak' kelimesi geçti mi?,,,filler,Kahvaltı sofrasına sıcak ve taze ekmek olmadan oturulmaz.,48,223,CO994419,NULL
1744990164,f7687c85e12cb15e1ecb989eac8fd70d,PennController,55,0,filler,NULL,Scale,scale,Choice,iyi,1744989699815,Evet,gram,undefined,Cümlede 'sıcak' kelimesi geçti mi?,,,filler,Kahvaltı sofrasına sıcak ve taze ekmek olmadan oturulmaz.,48,223,CO994419,NULL
1744990164,f7687c85e12cb15e1ecb989eac8fd70d,PennController,55,0,filler,NULL,Text,questionasked,Print,NA,1744989700473,Evet,gram,undefined,Cümlede 'sıcak' kelimesi geçti mi?,,,filler,Kahvaltı sofrasına sıcak ve taze ekmek olmadan oturulmaz.,48,223,CO994419,NULL
1744990164,f7687c85e12cb15e1ecb989eac8fd70d,PennController,55,0,filler,NULL,Scale,answer,Choice,Evet,1744989703993,Evet,gram,undefined,Cümlede 'sıcak' kelimesi geçti mi?,,,filler,Kahvaltı sofrasına sıcak ve taze ekmek olmadan oturulmaz.,48,223,CO994419,NULL
1744990164,f7687c85e12cb15e1ecb989eac8fd70d,PennController,55,0,filler,NULL,Scale,answer,Evet,checked,1744989704476,Evet,gram,undefined,Cümlede 'sıcak' kelimesi geçti mi?,,,filler,Kahvaltı sofrasına sıcak ve taze ekmek olmadan oturulmaz.,48,223,CO994419,Status
1744990164,f7687c85e12cb15e1ecb989eac8fd70d,PennController,55,0,filler,NULL,Scale,answer,Hayir,unchecked,1744989704476,Evet,gram,undefined,Cümlede 'sıcak' kelimesi geçti mi?,,,filler,Kahvaltı sofrasına sıcak ve taze ekmek olmadan oturulmaz.,48,223,CO994419,Status
1744990164,f7687c85e12cb15e1ecb989eac8fd70d,PennController,55,0,filler,NULL,PennController,53,_Trial_,End,1744989704477,Evet,gram,undefined,Cümlede 'sıcak' kelimesi geçti mi?,,,filler,Kahvaltı sofrasına sıcak ve taze ekmek olmadan oturulmaz.,48,223,CO994419,NULL
1744990164,f7687c85e12cb15e1ecb989eac8fd70d,PennController,72,0,filler,NULL,PennController,70,_Trial_,Start,1744989704477,,gram,undefined,,,,filler,Pelin bu dönemi hiç ödev ve sınav kaçırmadan tamamladı.,49,240,CO994419,NULL
1744990164,f7687c85e12cb15e1ecb989eac8fd70d,PennController,72,0,filler,NULL,PennController,70,_Header_,Start,1744989704477,,gram,undefined,,,,filler,Pelin bu dönemi hiç ödev ve sınav kaçırmadan tamamladı.,49,240,CO994419,NULL
1744990164,f7687c85e12cb15e1ecb989eac8fd70d,PennController,72,0,filler,NULL,PennController,70,_Header_,End,1744989704478,,gram,undefined,,,,filler,Pelin bu dönemi hiç ödev ve sınav kaçırmadan tamamladı.,49,240,CO994419,NULL
1744990164,f7687c85e12cb15e1ecb989eac8fd70d,PennController,72,0,filler,NULL,Text,Pelin bu dönemi hiç ödev ve sınav kaçırmadan tamamladı.,Print,NA,1744989704478,,gram,undefined,,,,filler,Pelin bu dönemi hiç ödev ve sınav kaçırmadan tamamladı.,49,240,CO994419,NULL
1744990164,f7687c85e12cb15e1ecb989eac8fd70d,PennController,72,0,filler,NULL,Scale,scale,Choice,oldukça iyi,1744989709878,,gram,undefined,,,,filler,Pelin bu dönemi hiç ödev ve sınav kaçırmadan tamamladı.,49,240,CO994419,NULL
1744990164,f7687c85e12cb15e1ecb989eac8fd70d,PennController,72,0,filler,NULL,PennController,70,_Trial_,End,1744989710594,,gram,undefined,,,,filler,Pelin bu dönemi hiç ödev ve sınav kaçırmadan tamamladı.,49,240,CO994419,NULL
1744990164,f7687c85e12cb15e1ecb989eac8fd70d,PennController,100,0,exp,NULL,PennController,98,_Trial_,Start,1744989710595,,g,undefined,,doktor,avukat,exp,Yasemin mezuniyetinden önce doktor ve avukatlık bir kimlik seçti.,50,28,CO994419,NULL
1744990164,f7687c85e12cb15e1ecb989eac8fd70d,PennController,100,0,exp,NULL,PennController,98,_Header_,Start,1744989710595,,g,undefined,,doktor,avukat,exp,Yasemin mezuniyetinden önce doktor ve avukatlık bir kimlik seçti.,50,28,CO994419,NULL
1744990164,f7687c85e12cb15e1ecb989eac8fd70d,PennController,100,0,exp,NULL,PennController,98,_Header_,End,1744989710596,,g,undefined,,doktor,avukat,exp,Yasemin mezuniyetinden önce doktor ve avukatlık bir kimlik seçti.,50,28,CO994419,NULL
1744990164,f7687c85e12cb15e1ecb989eac8fd70d,PennController,100,0,exp,NULL,Text,Yasemin mezuniyetinden önce doktor ve avukatlık bir kimlik seçti.,Print,NA,1744989710596,,g,undefined,,doktor,avukat,exp,Yasemin mezuniyetinden önce doktor ve avukatlık bir kimlik seçti.,50,28,CO994419,NULL
1744990164,f7687c85e12cb15e1ecb989eac8fd70d,PennController,100,0,exp,NULL,Scale,scale,Choice,oldukça kötü,1744989716430,,g,undefined,,doktor,avukat,exp,Yasemin mezuniyetinden önce doktor ve avukatlık bir kimlik seçti.,50,28,CO994419,NULL
1744990164,f7687c85e12cb15e1ecb989eac8fd70d,PennController,100,0,exp,NULL,PennController,98,_Trial_,End,1744989717121,,g,undefined,,doktor,avukat,exp,Yasemin mezuniyetinden önce doktor ve avukatlık bir kimlik seçti.,50,28,CO994419,NULL
1744990164,f7687c85e12cb15e1ecb989eac8fd70d,PennController,41,0,filler,NULL,PennController,39,_Trial_,Start,1744989717122,,gram,undefined,,,,filler,Sevda beslenme çantasındaki elmayı ve armutu çürüyene kadar bekletmiş.,51,209,CO994419,NULL
1744990164,f7687c85e12cb15e1ecb989eac8fd70d,PennController,41,0,filler,NULL,PennController,39,_Header_,Start,1744989717122,,gram,undefined,,,,filler,Sevda beslenme çantasındaki elmayı ve armutu çürüyene kadar bekletmiş.,51,209,CO994419,NULL
1744990164,f7687c85e12cb15e1ecb989eac8fd70d,PennController,41,0,filler,NULL,PennController,39,_Header_,End,1744989717122,,gram,undefined,,,,filler,Sevda beslenme çantasındaki elmayı ve armutu çürüyene kadar bekletmiş.,51,209,CO994419,NULL
1744990164,f7687c85e12cb15e1ecb989eac8fd70d,PennController,41,0,filler,NULL,Text,Sevda beslenme çantasındaki elmayı ve armutu çürüyene kadar bekletmiş.,Print,NA,1744989717123,,gram,undefined,,,,filler,Sevda beslenme çantasındaki elmayı ve armutu çürüyene kadar bekletmiş.,51,209,CO994419,NULL
1744990164,f7687c85e12cb15e1ecb989eac8fd70d,PennController,41,0,filler,NULL,Scale,scale,Choice,oldukça iyi,1744989721002,,gram,undefined,,,,filler,Sevda beslenme çantasındaki elmayı ve armutu çürüyene kadar bekletmiş.,51,209,CO994419,NULL
1744990164,f7687c85e12cb15e1ecb989eac8fd70d,PennController,41,0,filler,NULL,PennController,39,_Trial_,End,1744989722183,,gram,undefined,,,,filler,Sevda beslenme çantasındaki elmayı ve armutu çürüyene kadar bekletmiş.,51,209,CO994419,NULL
1744990164,f7687c85e12cb15e1ecb989eac8fd70d,PennController,18,0,filler,NULL,PennController,16,_Trial_,Start,1744989722184,Hayır,ungram,undefined,Cümlede 'mimar' kelimesi geçti mi?,,,filler,Mühendisler herkese birbirlerinin işten attıklarını anlattılar.,52,110,CO994419,NULL
1744990164,f7687c85e12cb15e1ecb989eac8fd70d,PennController,18,0,filler,NULL,PennController,16,_Header_,Start,1744989722184,Hayır,ungram,undefined,Cümlede 'mimar' kelimesi geçti mi?,,,filler,Mühendisler herkese birbirlerinin işten attıklarını anlattılar.,52,110,CO994419,NULL
1744990164,f7687c85e12cb15e1ecb989eac8fd70d,PennController,18,0,filler,NULL,PennController,16,_Header_,End,1744989722185,Hayır,ungram,undefined,Cümlede 'mimar' kelimesi geçti mi?,,,filler,Mühendisler herkese birbirlerinin işten attıklarını anlattılar.,52,110,CO994419,NULL
1744990164,f7687c85e12cb15e1ecb989eac8fd70d,PennController,18,0,filler,NULL,Text,Mühendisler herkese birbirlerinin işten attıklarını anlattılar.,Print,NA,1744989722185,Hayır,ungram,undefined,Cümlede 'mimar' kelimesi geçti mi?,,,filler,Mühendisler herkese birbirlerinin işten attıklarını anlattılar.,52,110,CO994419,NULL
1744990164,f7687c85e12cb15e1ecb989eac8fd70d,PennController,18,0,filler,NULL,Scale,scale,Choice,oldukça kötü,1744989729403,Hayır,ungram,undefined,Cümlede 'mimar' kelimesi geçti mi?,,,filler,Mühendisler herkese birbirlerinin işten attıklarını anlattılar.,52,110,CO994419,NULL
1744990164,f7687c85e12cb15e1ecb989eac8fd70d,PennController,18,0,filler,NULL,Text,questionasked,Print,NA,1744989730120,Hayır,ungram,undefined,Cümlede 'mimar' kelimesi geçti mi?,,,filler,Mühendisler herkese birbirlerinin işten attıklarını anlattılar.,52,110,CO994419,NULL
1744990164,f7687c85e12cb15e1ecb989eac8fd70d,PennController,18,0,filler,NULL,Scale,answer,Choice,Hayir,1744989731443,Hayır,ungram,undefined,Cümlede 'mimar' kelimesi geçti mi?,,,filler,Mühendisler herkese birbirlerinin işten attıklarını anlattılar.,52,110,CO994419,NULL
1744990164,f7687c85e12cb15e1ecb989eac8fd70d,PennController,18,0,filler,NULL,Scale,answer,Evet,unchecked,1744989731880,Hayır,ungram,undefined,Cümlede 'mimar' kelimesi geçti mi?,,,filler,Mühendisler herkese birbirlerinin işten attıklarını anlattılar.,52,110,CO994419,Status
1744990164,f7687c85e12cb15e1ecb989eac8fd70d,PennController,18,0,filler,NULL,Scale,answer,Hayir,checked,1744989731880,Hayır,ungram,undefined,Cümlede 'mimar' kelimesi geçti mi?,,,filler,Mühendisler herkese birbirlerinin işten attıklarını anlattılar.,52,110,CO994419,Status
1744990164,f7687c85e12cb15e1ecb989eac8fd70d,PennController,18,0,filler,NULL,PennController,16,_Trial_,End,1744989731880,Hayır,ungram,undefined,Cümlede 'mimar' kelimesi geçti mi?,,,filler,Mühendisler herkese birbirlerinin işten attıklarını anlattılar.,52,110,CO994419,NULL
1744990164,f7687c85e12cb15e1ecb989eac8fd70d,PennController,81,0,exp,NULL,PennController,79,_Trial_,Start,1744989731881,,b,undefined,,baba,anne,exp,Zeynep bu hafta anneci ve babacı bir yeğeniyle ilgilendi.,53,9,CO994419,NULL
1744990164,f7687c85e12cb15e1ecb989eac8fd70d,PennController,81,0,exp,NULL,PennController,79,_Header_,Start,1744989731881,,b,undefined,,baba,anne,exp,Zeynep bu hafta anneci ve babacı bir yeğeniyle ilgilendi.,53,9,CO994419,NULL
1744990164,f7687c85e12cb15e1ecb989eac8fd70d,PennController,81,0,exp,NULL,PennController,79,_Header_,End,1744989731881,,b,undefined,,baba,anne,exp,Zeynep bu hafta anneci ve babacı bir yeğeniyle ilgilendi.,53,9,CO994419,NULL
1744990164,f7687c85e12cb15e1ecb989eac8fd70d,PennController,81,0,exp,NULL,Text,Zeynep bu hafta anneci ve babacı bir yeğeniyle ilgilendi.,Print,NA,1744989731882,,b,undefined,,baba,anne,exp,Zeynep bu hafta anneci ve babacı bir yeğeniyle ilgilendi.,53,9,CO994419,NULL
1744990164,f7687c85e12cb15e1ecb989eac8fd70d,PennController,81,0,exp,NULL,Scale,scale,Choice,kötü,1744989742616,,b,undefined,,baba,anne,exp,Zeynep bu hafta anneci ve babacı bir yeğeniyle ilgilendi.,53,9,CO994419,NULL
1744990164,f7687c85e12cb15e1ecb989eac8fd70d,PennController,81,0,exp,NULL,PennController,79,_Trial_,End,1744989744138,,b,undefined,,baba,anne,exp,Zeynep bu hafta anneci ve babacı bir yeğeniyle ilgilendi.,53,9,CO994419,NULL
