#
# Results on Sat, 19 Apr 2025 14:10:52 GMT
# USER AGENT: Mozilla/5.0 (Windows NT 10.0; Win64; x64) AppleWebKit/537.36 (KHTML, like Gecko) Chrome/135.0.0.0 Safari/537.36
# Design number was non-random = 2
#
# Columns below this comment are as follows:
# 1. Results reception time.
# 2. MD5 hash of participant's IP address.
# 3. Controller name.
# 4. Order number of item.
# 5. Inner element number.
# 6. Label.
# 7. Latin Square Group.
# 8. PennElementType.
# 9. PennElementName.
# 10. Parameter.
# 11. Value.
# 12. EventTime.
# 13. ratingRT.
# 14. questionRT.
# 15. correctAnswer.
# 16. condition.
# 17. answer.
# 18. question.
# 19. conj2.
# 20. conj1.
# 21. type.
# 22. sentence.
# 23. trialNum.
# 24. itemNum.
# 25. completionCode.
# 26. Comments.
1745071852,c98e53191c8d693e1c1b81baf628bc22,PennController,3,0,instructions,NULL,PennController,0,_Trial_,Start,1745070787697,undefined,undefined,undefined,undefined,undefined,undefined,undefined,undefined,undefined,undefined,undefined,undefined,CO439307,NULL
1745071852,c98e53191c8d693e1c1b81baf628bc22,PennController,3,0,instructions,NULL,PennController,0,_Header_,Start,1745070787697,undefined,undefined,undefined,undefined,undefined,undefined,undefined,undefined,undefined,undefined,undefined,undefined,CO439307,NULL
1745071852,c98e53191c8d693e1c1b81baf628bc22,PennController,3,0,instructions,NULL,PennController,0,_Header_,End,1745070787698,undefined,undefined,undefined,undefined,undefined,undefined,undefined,undefined,undefined,undefined,undefined,undefined,CO439307,NULL
1745071852,c98e53191c8d693e1c1b81baf628bc22,PennController,3,0,instructions,NULL,PennController,0,_Trial_,End,1745070820273,undefined,undefined,undefined,undefined,undefined,undefined,undefined,undefined,undefined,undefined,undefined,undefined,CO439307,NULL
1745071852,c98e53191c8d693e1c1b81baf628bc22,PennController,4,0,demo,NULL,PennController,1,_Trial_,Start,1745070820278,undefined,undefined,undefined,undefined,undefined,undefined,undefined,undefined,undefined,undefined,undefined,undefined,CO439307,NULL
1745071852,c98e53191c8d693e1c1b81baf628bc22,PennController,4,0,demo,NULL,PennController,1,_Header_,Start,1745070820278,undefined,undefined,undefined,undefined,undefined,undefined,undefined,undefined,undefined,undefined,undefined,undefined,CO439307,NULL
1745071852,c98e53191c8d693e1c1b81baf628bc22,PennController,4,0,demo,NULL,PennController,1,_Header_,End,1745070820279,undefined,undefined,undefined,undefined,undefined,undefined,undefined,undefined,undefined,undefined,undefined,undefined,CO439307,NULL
1745071852,c98e53191c8d693e1c1b81baf628bc22,PennController,4,0,demo,NULL,TextInput,age,First,,1745070823781,undefined,undefined,undefined,undefined,undefined,undefined,undefined,undefined,undefined,undefined,undefined,undefined,CO439307,1
1745071852,c98e53191c8d693e1c1b81baf628bc22,PennController,4,0,demo,NULL,TextInput,language,First,,1745070828299,undefined,undefined,undefined,undefined,undefined,undefined,undefined,undefined,undefined,undefined,undefined,undefined,CO439307,Shift
1745071852,c98e53191c8d693e1c1b81baf628bc22,PennController,4,0,demo,NULL,TextInput,otherlg,First,,1745070831899,undefined,undefined,undefined,undefined,undefined,undefined,undefined,undefined,undefined,undefined,undefined,undefined,CO439307,Shift
1745071852,c98e53191c8d693e1c1b81baf628bc22,PennController,4,0,demo,NULL,TextInput,school,First,,1745070839053,undefined,undefined,undefined,undefined,undefined,undefined,undefined,undefined,undefined,undefined,undefined,undefined,CO439307,Shift
1745071852,c98e53191c8d693e1c1b81baf628bc22,PennController,4,0,demo,NULL,TextInput,age,Final,29,1745070844257,undefined,undefined,undefined,undefined,undefined,undefined,undefined,undefined,undefined,undefined,undefined,undefined,CO439307,NULL
1745071852,c98e53191c8d693e1c1b81baf628bc22,PennController,4,0,demo,NULL,TextInput,language,Final,Türkçe,1745070844258,undefined,undefined,undefined,undefined,undefined,undefined,undefined,undefined,undefined,undefined,undefined,undefined,CO439307,NULL
1745071852,c98e53191c8d693e1c1b81baf628bc22,PennController,4,0,demo,NULL,TextInput,otherlg,Final,Türkçe İngilizce,1745070844259,undefined,undefined,undefined,undefined,undefined,undefined,undefined,undefined,undefined,undefined,undefined,undefined,CO439307,NULL
1745071852,c98e53191c8d693e1c1b81baf628bc22,PennController,4,0,demo,NULL,TextInput,school,Final,Yüksek Lisans,1745070844259,undefined,undefined,undefined,undefined,undefined,undefined,undefined,undefined,undefined,undefined,undefined,undefined,CO439307,NULL
1745071852,c98e53191c8d693e1c1b81baf628bc22,PennController,4,0,demo,NULL,PennController,1,_Trial_,End,1745070844262,undefined,undefined,undefined,undefined,undefined,undefined,undefined,undefined,undefined,undefined,undefined,undefined,CO439307,NULL
1745071852,c98e53191c8d693e1c1b81baf628bc22,PennController,5,0,practice1,NULL,PennController,2,_Trial_,Start,1745070844273,undefined,undefined,undefined,undefined,undefined,undefined,undefined,undefined,undefined,undefined,undefined,undefined,CO439307,NULL
1745071852,c98e53191c8d693e1c1b81baf628bc22,PennController,5,0,practice1,NULL,PennController,2,_Header_,Start,1745070844273,undefined,undefined,undefined,undefined,undefined,undefined,undefined,undefined,undefined,undefined,undefined,undefined,CO439307,NULL
1745071852,c98e53191c8d693e1c1b81baf628bc22,PennController,5,0,practice1,NULL,PennController,2,_Header_,End,1745070844274,undefined,undefined,undefined,undefined,undefined,undefined,undefined,undefined,undefined,undefined,undefined,undefined,CO439307,NULL
1745071852,c98e53191c8d693e1c1b81baf628bc22,PennController,5,0,practice1,NULL,Text,Hizmetçi merdiveni duvara yasladı ama bu pek güvenli değildi.,Print,NA,1745070844278,undefined,undefined,undefined,undefined,undefined,undefined,undefined,undefined,undefined,undefined,undefined,undefined,CO439307,NULL
1745071852,c98e53191c8d693e1c1b81baf628bc22,PennController,5,0,practice1,NULL,Scale,scale,Choice,oldukça iyi,1745070853674,undefined,undefined,undefined,undefined,undefined,undefined,undefined,undefined,undefined,undefined,undefined,undefined,CO439307,NULL
1745071852,c98e53191c8d693e1c1b81baf628bc22,PennController,5,0,practice1,NULL,PennController,2,_Trial_,End,1745070864291,undefined,undefined,undefined,undefined,undefined,undefined,undefined,undefined,undefined,undefined,undefined,undefined,CO439307,NULL
1745071852,c98e53191c8d693e1c1b81baf628bc22,PennController,6,0,practice2,NULL,PennController,3,_Trial_,Start,1745070864295,undefined,undefined,undefined,undefined,undefined,undefined,undefined,undefined,undefined,undefined,undefined,undefined,CO439307,NULL
1745071852,c98e53191c8d693e1c1b81baf628bc22,PennController,6,0,practice2,NULL,PennController,3,_Header_,Start,1745070864295,undefined,undefined,undefined,undefined,undefined,undefined,undefined,undefined,undefined,undefined,undefined,undefined,CO439307,NULL
1745071852,c98e53191c8d693e1c1b81baf628bc22,PennController,6,0,practice2,NULL,PennController,3,_Header_,End,1745070864296,undefined,undefined,undefined,undefined,undefined,undefined,undefined,undefined,undefined,undefined,undefined,undefined,CO439307,NULL
1745071852,c98e53191c8d693e1c1b81baf628bc22,PennController,6,0,practice2,NULL,Text,Köyü ziyaret eden belediye başkanı asla beğenmiş.,Print,NA,1745070864297,undefined,undefined,undefined,undefined,undefined,undefined,undefined,undefined,undefined,undefined,undefined,undefined,CO439307,NULL
1745071852,c98e53191c8d693e1c1b81baf628bc22,PennController,6,0,practice2,NULL,Scale,scale,Choice,oldukça kötü,1745070871236,undefined,undefined,undefined,undefined,undefined,undefined,undefined,undefined,undefined,undefined,undefined,undefined,CO439307,NULL
1745071852,c98e53191c8d693e1c1b81baf628bc22,PennController,6,0,practice2,NULL,PennController,3,_Trial_,End,1745070877386,undefined,undefined,undefined,undefined,undefined,undefined,undefined,undefined,undefined,undefined,undefined,undefined,CO439307,NULL
1745071852,c98e53191c8d693e1c1b81baf628bc22,PennController,7,0,practice3,NULL,PennController,4,_Trial_,Start,1745070877391,undefined,undefined,undefined,undefined,undefined,undefined,undefined,undefined,undefined,undefined,undefined,undefined,CO439307,NULL
1745071852,c98e53191c8d693e1c1b81baf628bc22,PennController,7,0,practice3,NULL,PennController,4,_Header_,Start,1745070877391,undefined,undefined,undefined,undefined,undefined,undefined,undefined,undefined,undefined,undefined,undefined,undefined,CO439307,NULL
1745071852,c98e53191c8d693e1c1b81baf628bc22,PennController,7,0,practice3,NULL,PennController,4,_Header_,End,1745070877392,undefined,undefined,undefined,undefined,undefined,undefined,undefined,undefined,undefined,undefined,undefined,undefined,CO439307,NULL
1745071852,c98e53191c8d693e1c1b81baf628bc22,PennController,7,0,practice3,NULL,Text,Harabeler onarılmaya dün çalışıldı.,Print,NA,1745070877394,undefined,undefined,undefined,undefined,undefined,undefined,undefined,undefined,undefined,undefined,undefined,undefined,CO439307,NULL
1745071852,c98e53191c8d693e1c1b81baf628bc22,PennController,7,0,practice3,NULL,Scale,scale,Choice,oldukça kötü,1745070881501,undefined,undefined,undefined,undefined,undefined,undefined,undefined,undefined,undefined,undefined,undefined,undefined,CO439307,NULL
1745071852,c98e53191c8d693e1c1b81baf628bc22,PennController,7,0,practice3,NULL,PennController,4,_Trial_,End,1745070896918,undefined,undefined,undefined,undefined,undefined,undefined,undefined,undefined,undefined,undefined,undefined,undefined,CO439307,NULL
1745071852,c98e53191c8d693e1c1b81baf628bc22,PennController,8,0,break,NULL,PennController,5,_Trial_,Start,1745070896922,undefined,undefined,undefined,undefined,undefined,undefined,undefined,undefined,undefined,undefined,undefined,undefined,CO439307,NULL
1745071852,c98e53191c8d693e1c1b81baf628bc22,PennController,8,0,break,NULL,PennController,5,_Header_,Start,1745070896922,undefined,undefined,undefined,undefined,undefined,undefined,undefined,undefined,undefined,undefined,undefined,undefined,CO439307,NULL
1745071852,c98e53191c8d693e1c1b81baf628bc22,PennController,8,0,break,NULL,PennController,5,_Header_,End,1745070896922,undefined,undefined,undefined,undefined,undefined,undefined,undefined,undefined,undefined,undefined,undefined,undefined,CO439307,NULL
1745071852,c98e53191c8d693e1c1b81baf628bc22,PennController,8,0,break,NULL,PennController,5,_Trial_,End,1745070898662,undefined,undefined,undefined,undefined,undefined,undefined,undefined,undefined,undefined,undefined,undefined,undefined,CO439307,NULL
1745071852,c98e53191c8d693e1c1b81baf628bc22,PennController,30,0,filler,NULL,PennController,28,_Trial_,Start,1745070898663,12182,NA,,ungram,undefined,,,,filler,Geçen ay egzersiz yapıp sonra pes ettiğimdir.,1,122,CO439307,NULL
1745071852,c98e53191c8d693e1c1b81baf628bc22,PennController,30,0,filler,NULL,PennController,28,_Header_,Start,1745070898663,12182,NA,,ungram,undefined,,,,filler,Geçen ay egzersiz yapıp sonra pes ettiğimdir.,1,122,CO439307,NULL
1745071852,c98e53191c8d693e1c1b81baf628bc22,PennController,30,0,filler,NULL,PennController,28,_Header_,End,1745070898663,12182,NA,,ungram,undefined,,,,filler,Geçen ay egzersiz yapıp sonra pes ettiğimdir.,1,122,CO439307,NULL
1745071852,c98e53191c8d693e1c1b81baf628bc22,PennController,30,0,filler,NULL,Text,Geçen ay egzersiz yapıp sonra pes ettiğimdir.,Print,NA,1745070898665,12182,NA,,ungram,undefined,,,,filler,Geçen ay egzersiz yapıp sonra pes ettiğimdir.,1,122,CO439307,NULL
1745071852,c98e53191c8d693e1c1b81baf628bc22,PennController,30,0,filler,NULL,Scale,scale,Choice,oldukça kötü,1745070909614,12182,NA,,ungram,undefined,,,,filler,Geçen ay egzersiz yapıp sonra pes ettiğimdir.,1,122,CO439307,NULL
1745071852,c98e53191c8d693e1c1b81baf628bc22,PennController,30,0,filler,NULL,PennController,28,_Trial_,End,1745070910849,12182,NA,,ungram,undefined,,,,filler,Geçen ay egzersiz yapıp sonra pes ettiğimdir.,1,122,CO439307,NULL
1745071852,c98e53191c8d693e1c1b81baf628bc22,PennController,52,0,filler,NULL,PennController,50,_Trial_,Start,1745070910851,7960,NA,,gram,undefined,,,,filler,Umut son olaylardan sonra saygılı ve ileri görüşlü velilerden bu tepkiyi beklemiyordu.,2,220,CO439307,NULL
1745071852,c98e53191c8d693e1c1b81baf628bc22,PennController,52,0,filler,NULL,PennController,50,_Header_,Start,1745070910851,7960,NA,,gram,undefined,,,,filler,Umut son olaylardan sonra saygılı ve ileri görüşlü velilerden bu tepkiyi beklemiyordu.,2,220,CO439307,NULL
1745071852,c98e53191c8d693e1c1b81baf628bc22,PennController,52,0,filler,NULL,PennController,50,_Header_,End,1745070910852,7960,NA,,gram,undefined,,,,filler,Umut son olaylardan sonra saygılı ve ileri görüşlü velilerden bu tepkiyi beklemiyordu.,2,220,CO439307,NULL
1745071852,c98e53191c8d693e1c1b81baf628bc22,PennController,52,0,filler,NULL,Text,Umut son olaylardan sonra saygılı ve ileri görüşlü velilerden bu tepkiyi beklemiyordu.,Print,NA,1745070910853,7960,NA,,gram,undefined,,,,filler,Umut son olaylardan sonra saygılı ve ileri görüşlü velilerden bu tepkiyi beklemiyordu.,2,220,CO439307,NULL
1745071852,c98e53191c8d693e1c1b81baf628bc22,PennController,52,0,filler,NULL,Scale,scale,Choice,oldukça iyi,1745070917429,7960,NA,,gram,undefined,,,,filler,Umut son olaylardan sonra saygılı ve ileri görüşlü velilerden bu tepkiyi beklemiyordu.,2,220,CO439307,NULL
1745071852,c98e53191c8d693e1c1b81baf628bc22,PennController,52,0,filler,NULL,PennController,50,_Trial_,End,1745070918817,7960,NA,,gram,undefined,,,,filler,Umut son olaylardan sonra saygılı ve ileri görüşlü velilerden bu tepkiyi beklemiyordu.,2,220,CO439307,NULL
1745071852,c98e53191c8d693e1c1b81baf628bc22,PennController,89,0,exp,NULL,PennController,87,_Trial_,Start,1745070918820,10740,NA,,c,undefined,,nehir,tepe,exp,Eylül kamp yaparken tepe ve nehirli bir alan seçti.,3,17,CO439307,NULL
1745071852,c98e53191c8d693e1c1b81baf628bc22,PennController,89,0,exp,NULL,PennController,87,_Header_,Start,1745070918820,10740,NA,,c,undefined,,nehir,tepe,exp,Eylül kamp yaparken tepe ve nehirli bir alan seçti.,3,17,CO439307,NULL
1745071852,c98e53191c8d693e1c1b81baf628bc22,PennController,89,0,exp,NULL,PennController,87,_Header_,End,1745070918820,10740,NA,,c,undefined,,nehir,tepe,exp,Eylül kamp yaparken tepe ve nehirli bir alan seçti.,3,17,CO439307,NULL
1745071852,c98e53191c8d693e1c1b81baf628bc22,PennController,89,0,exp,NULL,Text,Eylül kamp yaparken tepe ve nehirli bir alan seçti.,Print,NA,1745070918822,10740,NA,,c,undefined,,nehir,tepe,exp,Eylül kamp yaparken tepe ve nehirli bir alan seçti.,3,17,CO439307,NULL
1745071852,c98e53191c8d693e1c1b81baf628bc22,PennController,89,0,exp,NULL,Scale,scale,Choice,iyi sayılır,1745070928326,10740,NA,,c,undefined,,nehir,tepe,exp,Eylül kamp yaparken tepe ve nehirli bir alan seçti.,3,17,CO439307,NULL
1745071852,c98e53191c8d693e1c1b81baf628bc22,PennController,89,0,exp,NULL,PennController,87,_Trial_,End,1745070929563,10740,NA,,c,undefined,,nehir,tepe,exp,Eylül kamp yaparken tepe ve nehirli bir alan seçti.,3,17,CO439307,NULL
1745071852,c98e53191c8d693e1c1b81baf628bc22,PennController,12,0,filler,NULL,PennController,10,_Trial_,Start,1745070929565,1745070934642,1745070936584,Hayır,ungram,undefined,Şiir okundu mu?,,,filler,Metin yeni çıkan romanı ve gazete okudu.,4,104,CO439307,NULL
1745071852,c98e53191c8d693e1c1b81baf628bc22,PennController,12,0,filler,NULL,PennController,10,_Header_,Start,1745070929565,1745070934642,1745070936584,Hayır,ungram,undefined,Şiir okundu mu?,,,filler,Metin yeni çıkan romanı ve gazete okudu.,4,104,CO439307,NULL
1745071852,c98e53191c8d693e1c1b81baf628bc22,PennController,12,0,filler,NULL,PennController,10,_Header_,End,1745070929565,1745070934642,1745070936584,Hayır,ungram,undefined,Şiir okundu mu?,,,filler,Metin yeni çıkan romanı ve gazete okudu.,4,104,CO439307,NULL
1745071852,c98e53191c8d693e1c1b81baf628bc22,PennController,12,0,filler,NULL,Text,Metin yeni çıkan romanı ve gazete okudu.,Print,NA,1745070929566,1745070934642,1745070936584,Hayır,ungram,undefined,Şiir okundu mu?,,,filler,Metin yeni çıkan romanı ve gazete okudu.,4,104,CO439307,NULL
1745071852,c98e53191c8d693e1c1b81baf628bc22,PennController,12,0,filler,NULL,Scale,scale,Choice,kötü,1745070935409,1745070934642,1745070936584,Hayır,ungram,undefined,Şiir okundu mu?,,,filler,Metin yeni çıkan romanı ve gazete okudu.,4,104,CO439307,NULL
1745071852,c98e53191c8d693e1c1b81baf628bc22,PennController,12,0,filler,NULL,Text,questionasked,Print,NA,1745070936585,1745070934642,1745070936584,Hayır,ungram,undefined,Şiir okundu mu?,,,filler,Metin yeni çıkan romanı ve gazete okudu.,4,104,CO439307,NULL
1745071852,c98e53191c8d693e1c1b81baf628bc22,PennController,12,0,filler,NULL,Scale,answer,Choice,Evet,1745070940574,1745070934642,1745070936584,Hayır,ungram,undefined,Şiir okundu mu?,,,filler,Metin yeni çıkan romanı ve gazete okudu.,4,104,CO439307,NULL
1745071852,c98e53191c8d693e1c1b81baf628bc22,PennController,12,0,filler,NULL,Scale,answer,Evet,checked,1745070941646,1745070934642,1745070936584,Hayır,ungram,undefined,Şiir okundu mu?,,,filler,Metin yeni çıkan romanı ve gazete okudu.,4,104,CO439307,Status
1745071852,c98e53191c8d693e1c1b81baf628bc22,PennController,12,0,filler,NULL,Scale,answer,Hayır,unchecked,1745070941646,1745070934642,1745070936584,Hayır,ungram,undefined,Şiir okundu mu?,,,filler,Metin yeni çıkan romanı ve gazete okudu.,4,104,CO439307,Status
1745071852,c98e53191c8d693e1c1b81baf628bc22,PennController,12,0,filler,NULL,PennController,10,_Trial_,End,1745070941646,1745070934642,1745070936584,Hayır,ungram,undefined,Şiir okundu mu?,,,filler,Metin yeni çıkan romanı ve gazete okudu.,4,104,CO439307,NULL
1745071852,c98e53191c8d693e1c1b81baf628bc22,PennController,58,0,filler,NULL,PennController,56,_Trial_,Start,1745070941650,1745070946401,1745070951554,Hayır,gram,undefined,Yorgan aldılar mı?,,,filler,Yeni eve kışlık ve kalın yorgan almak için biraz daha bekleyeceklermiş.,5,226,CO439307,NULL
1745071852,c98e53191c8d693e1c1b81baf628bc22,PennController,58,0,filler,NULL,PennController,56,_Header_,Start,1745070941650,1745070946401,1745070951554,Hayır,gram,undefined,Yorgan aldılar mı?,,,filler,Yeni eve kışlık ve kalın yorgan almak için biraz daha bekleyeceklermiş.,5,226,CO439307,NULL
1745071852,c98e53191c8d693e1c1b81baf628bc22,PennController,58,0,filler,NULL,PennController,56,_Header_,End,1745070941650,1745070946401,1745070951554,Hayır,gram,undefined,Yorgan aldılar mı?,,,filler,Yeni eve kışlık ve kalın yorgan almak için biraz daha bekleyeceklermiş.,5,226,CO439307,NULL
1745071852,c98e53191c8d693e1c1b81baf628bc22,PennController,58,0,filler,NULL,Text,Yeni eve kışlık ve kalın yorgan almak için biraz daha bekleyeceklermiş.,Print,NA,1745070941651,1745070946401,1745070951554,Hayır,gram,undefined,Yorgan aldılar mı?,,,filler,Yeni eve kışlık ve kalın yorgan almak için biraz daha bekleyeceklermiş.,5,226,CO439307,NULL
1745071852,c98e53191c8d693e1c1b81baf628bc22,PennController,58,0,filler,NULL,Scale,scale,Choice,iyi sayılır,1745070950174,1745070946401,1745070951554,Hayır,gram,undefined,Yorgan aldılar mı?,,,filler,Yeni eve kışlık ve kalın yorgan almak için biraz daha bekleyeceklermiş.,5,226,CO439307,NULL
1745071852,c98e53191c8d693e1c1b81baf628bc22,PennController,58,0,filler,NULL,Text,questionasked,Print,NA,1745070951554,1745070946401,1745070951554,Hayır,gram,undefined,Yorgan aldılar mı?,,,filler,Yeni eve kışlık ve kalın yorgan almak için biraz daha bekleyeceklermiş.,5,226,CO439307,NULL
1745071852,c98e53191c8d693e1c1b81baf628bc22,PennController,58,0,filler,NULL,Scale,answer,Choice,Hayır,1745070955125,1745070946401,1745070951554,Hayır,gram,undefined,Yorgan aldılar mı?,,,filler,Yeni eve kışlık ve kalın yorgan almak için biraz daha bekleyeceklermiş.,5,226,CO439307,NULL
1745071852,c98e53191c8d693e1c1b81baf628bc22,PennController,58,0,filler,NULL,Scale,answer,Evet,unchecked,1745070956296,1745070946401,1745070951554,Hayır,gram,undefined,Yorgan aldılar mı?,,,filler,Yeni eve kışlık ve kalın yorgan almak için biraz daha bekleyeceklermiş.,5,226,CO439307,Status
1745071852,c98e53191c8d693e1c1b81baf628bc22,PennController,58,0,filler,NULL,Scale,answer,Hayır,checked,1745070956296,1745070946401,1745070951554,Hayır,gram,undefined,Yorgan aldılar mı?,,,filler,Yeni eve kışlık ve kalın yorgan almak için biraz daha bekleyeceklermiş.,5,226,CO439307,Status
1745071852,c98e53191c8d693e1c1b81baf628bc22,PennController,58,0,filler,NULL,PennController,56,_Trial_,End,1745070956296,1745070946401,1745070951554,Hayır,gram,undefined,Yorgan aldılar mı?,,,filler,Yeni eve kışlık ve kalın yorgan almak için biraz daha bekleyeceklermiş.,5,226,CO439307,NULL
1745071852,c98e53191c8d693e1c1b81baf628bc22,PennController,76,0,exp,NULL,PennController,74,_Trial_,Start,1745070956299,11970,NA,,h,undefined,,portakal,limon,exp,Burak tatlı için limonluk ve portakallık bir tabak hazırlamış.,6,4,CO439307,NULL
1745071852,c98e53191c8d693e1c1b81baf628bc22,PennController,76,0,exp,NULL,PennController,74,_Header_,Start,1745070956299,11970,NA,,h,undefined,,portakal,limon,exp,Burak tatlı için limonluk ve portakallık bir tabak hazırlamış.,6,4,CO439307,NULL
1745071852,c98e53191c8d693e1c1b81baf628bc22,PennController,76,0,exp,NULL,PennController,74,_Header_,End,1745070956300,11970,NA,,h,undefined,,portakal,limon,exp,Burak tatlı için limonluk ve portakallık bir tabak hazırlamış.,6,4,CO439307,NULL
1745071852,c98e53191c8d693e1c1b81baf628bc22,PennController,76,0,exp,NULL,Text,Burak tatlı için limonluk ve portakallık bir tabak hazırlamış.,Print,NA,1745070956301,11970,NA,,h,undefined,,portakal,limon,exp,Burak tatlı için limonluk ve portakallık bir tabak hazırlamış.,6,4,CO439307,NULL
1745071852,c98e53191c8d693e1c1b81baf628bc22,PennController,76,0,exp,NULL,Scale,scale,Choice,kötü,1745070966776,11970,NA,,h,undefined,,portakal,limon,exp,Burak tatlı için limonluk ve portakallık bir tabak hazırlamış.,6,4,CO439307,NULL
1745071852,c98e53191c8d693e1c1b81baf628bc22,PennController,76,0,exp,NULL,PennController,74,_Trial_,End,1745070968274,11970,NA,,h,undefined,,portakal,limon,exp,Burak tatlı için limonluk ve portakallık bir tabak hazırlamış.,6,4,CO439307,NULL
1745071852,c98e53191c8d693e1c1b81baf628bc22,PennController,15,0,filler,NULL,PennController,13,_Trial_,Start,1745070968278,1745070972561,1745070975787,Evet,ungram,undefined,Büyük emekler verilmiş mi?,,,filler,Bu işyeri yıllarca büyük emekler verip çalıştığımdır.,7,107,CO439307,NULL
1745071852,c98e53191c8d693e1c1b81baf628bc22,PennController,15,0,filler,NULL,PennController,13,_Header_,Start,1745070968278,1745070972561,1745070975787,Evet,ungram,undefined,Büyük emekler verilmiş mi?,,,filler,Bu işyeri yıllarca büyük emekler verip çalıştığımdır.,7,107,CO439307,NULL
1745071852,c98e53191c8d693e1c1b81baf628bc22,PennController,15,0,filler,NULL,PennController,13,_Header_,End,1745070968278,1745070972561,1745070975787,Evet,ungram,undefined,Büyük emekler verilmiş mi?,,,filler,Bu işyeri yıllarca büyük emekler verip çalıştığımdır.,7,107,CO439307,NULL
1745071852,c98e53191c8d693e1c1b81baf628bc22,PennController,15,0,filler,NULL,Text,Bu işyeri yıllarca büyük emekler verip çalıştığımdır.,Print,NA,1745070968279,1745070972561,1745070975787,Evet,ungram,undefined,Büyük emekler verilmiş mi?,,,filler,Bu işyeri yıllarca büyük emekler verip çalıştığımdır.,7,107,CO439307,NULL
1745071852,c98e53191c8d693e1c1b81baf628bc22,PennController,15,0,filler,NULL,Scale,scale,Choice,kötü,1745070974607,1745070972561,1745070975787,Evet,ungram,undefined,Büyük emekler verilmiş mi?,,,filler,Bu işyeri yıllarca büyük emekler verip çalıştığımdır.,7,107,CO439307,NULL
1745071852,c98e53191c8d693e1c1b81baf628bc22,PennController,15,0,filler,NULL,Text,questionasked,Print,NA,1745070975788,1745070972561,1745070975787,Evet,ungram,undefined,Büyük emekler verilmiş mi?,,,filler,Bu işyeri yıllarca büyük emekler verip çalıştığımdır.,7,107,CO439307,NULL
1745071852,c98e53191c8d693e1c1b81baf628bc22,PennController,15,0,filler,NULL,Scale,answer,Choice,Evet,1745070979085,1745070972561,1745070975787,Evet,ungram,undefined,Büyük emekler verilmiş mi?,,,filler,Bu işyeri yıllarca büyük emekler verip çalıştığımdır.,7,107,CO439307,NULL
1745071852,c98e53191c8d693e1c1b81baf628bc22,PennController,15,0,filler,NULL,Scale,answer,Evet,checked,1745070980057,1745070972561,1745070975787,Evet,ungram,undefined,Büyük emekler verilmiş mi?,,,filler,Bu işyeri yıllarca büyük emekler verip çalıştığımdır.,7,107,CO439307,Status
1745071852,c98e53191c8d693e1c1b81baf628bc22,PennController,15,0,filler,NULL,Scale,answer,Hayır,unchecked,1745070980057,1745070972561,1745070975787,Evet,ungram,undefined,Büyük emekler verilmiş mi?,,,filler,Bu işyeri yıllarca büyük emekler verip çalıştığımdır.,7,107,CO439307,Status
1745071852,c98e53191c8d693e1c1b81baf628bc22,PennController,15,0,filler,NULL,PennController,13,_Trial_,End,1745070980057,1745070972561,1745070975787,Evet,ungram,undefined,Büyük emekler verilmiş mi?,,,filler,Bu işyeri yıllarca büyük emekler verip çalıştığımdır.,7,107,CO439307,NULL
1745071852,c98e53191c8d693e1c1b81baf628bc22,PennController,28,0,filler,NULL,PennController,26,_Trial_,Start,1745070980060,9775,NA,,ungram,undefined,,,,filler,Arkadaşım uzun bir kahvaltı yapmayı ve dışarı çıkmak istedi.,8,120,CO439307,NULL
1745071852,c98e53191c8d693e1c1b81baf628bc22,PennController,28,0,filler,NULL,PennController,26,_Header_,Start,1745070980060,9775,NA,,ungram,undefined,,,,filler,Arkadaşım uzun bir kahvaltı yapmayı ve dışarı çıkmak istedi.,8,120,CO439307,NULL
1745071852,c98e53191c8d693e1c1b81baf628bc22,PennController,28,0,filler,NULL,PennController,26,_Header_,End,1745070980060,9775,NA,,ungram,undefined,,,,filler,Arkadaşım uzun bir kahvaltı yapmayı ve dışarı çıkmak istedi.,8,120,CO439307,NULL
1745071852,c98e53191c8d693e1c1b81baf628bc22,PennController,28,0,filler,NULL,Text,Arkadaşım uzun bir kahvaltı yapmayı ve dışarı çıkmak istedi.,Print,NA,1745070980062,9775,NA,,ungram,undefined,,,,filler,Arkadaşım uzun bir kahvaltı yapmayı ve dışarı çıkmak istedi.,8,120,CO439307,NULL
1745071852,c98e53191c8d693e1c1b81baf628bc22,PennController,28,0,filler,NULL,Scale,scale,Choice,kötü,1745070988735,9775,NA,,ungram,undefined,,,,filler,Arkadaşım uzun bir kahvaltı yapmayı ve dışarı çıkmak istedi.,8,120,CO439307,NULL
1745071852,c98e53191c8d693e1c1b81baf628bc22,PennController,28,0,filler,NULL,PennController,26,_Trial_,End,1745070989838,9775,NA,,ungram,undefined,,,,filler,Arkadaşım uzun bir kahvaltı yapmayı ve dışarı çıkmak istedi.,8,120,CO439307,NULL
1745071852,c98e53191c8d693e1c1b81baf628bc22,PennController,86,0,exp,NULL,PennController,84,_Trial_,Start,1745070989840,10758,NA,,f,undefined,,aslan,fare,exp,Elif gençlik yıllarında faresiz ve aslansız bir oyun sahneledi.,9,14,CO439307,NULL
1745071852,c98e53191c8d693e1c1b81baf628bc22,PennController,86,0,exp,NULL,PennController,84,_Header_,Start,1745070989840,10758,NA,,f,undefined,,aslan,fare,exp,Elif gençlik yıllarında faresiz ve aslansız bir oyun sahneledi.,9,14,CO439307,NULL
1745071852,c98e53191c8d693e1c1b81baf628bc22,PennController,86,0,exp,NULL,PennController,84,_Header_,End,1745070989840,10758,NA,,f,undefined,,aslan,fare,exp,Elif gençlik yıllarında faresiz ve aslansız bir oyun sahneledi.,9,14,CO439307,NULL
1745071852,c98e53191c8d693e1c1b81baf628bc22,PennController,86,0,exp,NULL,Text,Elif gençlik yıllarında faresiz ve aslansız bir oyun sahneledi.,Print,NA,1745070989842,10758,NA,,f,undefined,,aslan,fare,exp,Elif gençlik yıllarında faresiz ve aslansız bir oyun sahneledi.,9,14,CO439307,NULL
1745071852,c98e53191c8d693e1c1b81baf628bc22,PennController,86,0,exp,NULL,Scale,scale,Choice,iyi sayılır,1745070999621,10758,NA,,f,undefined,,aslan,fare,exp,Elif gençlik yıllarında faresiz ve aslansız bir oyun sahneledi.,9,14,CO439307,NULL
1745071852,c98e53191c8d693e1c1b81baf628bc22,PennController,86,0,exp,NULL,PennController,84,_Trial_,End,1745071000600,10758,NA,,f,undefined,,aslan,fare,exp,Elif gençlik yıllarında faresiz ve aslansız bir oyun sahneledi.,9,14,CO439307,NULL
1745071852,c98e53191c8d693e1c1b81baf628bc22,PennController,69,0,filler,NULL,PennController,67,_Trial_,Start,1745071000601,5621,NA,,gram,undefined,,,,filler,Bilge alışveriş sitesinden değişim için ödeme fişi ve makbuzu isteyecek.,10,237,CO439307,NULL
1745071852,c98e53191c8d693e1c1b81baf628bc22,PennController,69,0,filler,NULL,PennController,67,_Header_,Start,1745071000601,5621,NA,,gram,undefined,,,,filler,Bilge alışveriş sitesinden değişim için ödeme fişi ve makbuzu isteyecek.,10,237,CO439307,NULL
1745071852,c98e53191c8d693e1c1b81baf628bc22,PennController,69,0,filler,NULL,PennController,67,_Header_,End,1745071000601,5621,NA,,gram,undefined,,,,filler,Bilge alışveriş sitesinden değişim için ödeme fişi ve makbuzu isteyecek.,10,237,CO439307,NULL
1745071852,c98e53191c8d693e1c1b81baf628bc22,PennController,69,0,filler,NULL,Text,Bilge alışveriş sitesinden değişim için ödeme fişi ve makbuzu isteyecek.,Print,NA,1745071000602,5621,NA,,gram,undefined,,,,filler,Bilge alışveriş sitesinden değişim için ödeme fişi ve makbuzu isteyecek.,10,237,CO439307,NULL
1745071852,c98e53191c8d693e1c1b81baf628bc22,PennController,69,0,filler,NULL,Scale,scale,Choice,oldukça iyi,1745071005201,5621,NA,,gram,undefined,,,,filler,Bilge alışveriş sitesinden değişim için ödeme fişi ve makbuzu isteyecek.,10,237,CO439307,NULL
1745071852,c98e53191c8d693e1c1b81baf628bc22,PennController,69,0,filler,NULL,PennController,67,_Trial_,End,1745071006227,5621,NA,,gram,undefined,,,,filler,Bilge alışveriş sitesinden değişim için ödeme fişi ve makbuzu isteyecek.,10,237,CO439307,NULL
1745071852,c98e53191c8d693e1c1b81baf628bc22,PennController,72,0,filler,NULL,PennController,70,_Trial_,Start,1745071006230,6689,NA,,gram,undefined,,,,filler,Pelin bu dönemi hiç ödev ve sınav kaçırmadan tamamladı.,11,240,CO439307,NULL
1745071852,c98e53191c8d693e1c1b81baf628bc22,PennController,72,0,filler,NULL,PennController,70,_Header_,Start,1745071006230,6689,NA,,gram,undefined,,,,filler,Pelin bu dönemi hiç ödev ve sınav kaçırmadan tamamladı.,11,240,CO439307,NULL
1745071852,c98e53191c8d693e1c1b81baf628bc22,PennController,72,0,filler,NULL,PennController,70,_Header_,End,1745071006230,6689,NA,,gram,undefined,,,,filler,Pelin bu dönemi hiç ödev ve sınav kaçırmadan tamamladı.,11,240,CO439307,NULL
1745071852,c98e53191c8d693e1c1b81baf628bc22,PennController,72,0,filler,NULL,Text,Pelin bu dönemi hiç ödev ve sınav kaçırmadan tamamladı.,Print,NA,1745071006232,6689,NA,,gram,undefined,,,,filler,Pelin bu dönemi hiç ödev ve sınav kaçırmadan tamamladı.,11,240,CO439307,NULL
1745071852,c98e53191c8d693e1c1b81baf628bc22,PennController,72,0,filler,NULL,Scale,scale,Choice,oldukça iyi,1745071011570,6689,NA,,gram,undefined,,,,filler,Pelin bu dönemi hiç ödev ve sınav kaçırmadan tamamladı.,11,240,CO439307,NULL
1745071852,c98e53191c8d693e1c1b81baf628bc22,PennController,72,0,filler,NULL,PennController,70,_Trial_,End,1745071012923,6689,NA,,gram,undefined,,,,filler,Pelin bu dönemi hiç ödev ve sınav kaçırmadan tamamladı.,11,240,CO439307,NULL
1745071852,c98e53191c8d693e1c1b81baf628bc22,PennController,75,0,exp,NULL,PennController,73,_Trial_,Start,1745071012925,8020,NA,,a,undefined,,şapka,atkı,exp,Leyla eski çarşıda atkı ve şapkacı bir tuhafiyeye uğrayacakmış.,12,3,CO439307,NULL
1745071852,c98e53191c8d693e1c1b81baf628bc22,PennController,75,0,exp,NULL,PennController,73,_Header_,Start,1745071012925,8020,NA,,a,undefined,,şapka,atkı,exp,Leyla eski çarşıda atkı ve şapkacı bir tuhafiyeye uğrayacakmış.,12,3,CO439307,NULL
1745071852,c98e53191c8d693e1c1b81baf628bc22,PennController,75,0,exp,NULL,PennController,73,_Header_,End,1745071012926,8020,NA,,a,undefined,,şapka,atkı,exp,Leyla eski çarşıda atkı ve şapkacı bir tuhafiyeye uğrayacakmış.,12,3,CO439307,NULL
1745071852,c98e53191c8d693e1c1b81baf628bc22,PennController,75,0,exp,NULL,Text,Leyla eski çarşıda atkı ve şapkacı bir tuhafiyeye uğrayacakmış.,Print,NA,1745071012927,8020,NA,,a,undefined,,şapka,atkı,exp,Leyla eski çarşıda atkı ve şapkacı bir tuhafiyeye uğrayacakmış.,12,3,CO439307,NULL
1745071852,c98e53191c8d693e1c1b81baf628bc22,PennController,75,0,exp,NULL,Scale,scale,Choice,kötü,1745071019600,8020,NA,,a,undefined,,şapka,atkı,exp,Leyla eski çarşıda atkı ve şapkacı bir tuhafiyeye uğrayacakmış.,12,3,CO439307,NULL
1745071852,c98e53191c8d693e1c1b81baf628bc22,PennController,75,0,exp,NULL,PennController,73,_Trial_,End,1745071020948,8020,NA,,a,undefined,,şapka,atkı,exp,Leyla eski çarşıda atkı ve şapkacı bir tuhafiyeye uğrayacakmış.,12,3,CO439307,NULL
1745071852,c98e53191c8d693e1c1b81baf628bc22,PennController,33,0,filler,NULL,PennController,31,_Trial_,Start,1745071020950,1745071025109,1745071047190,Evet,gram,undefined,Cümlede 'akraba' kelimesi geçti mi?,,,filler,Doğum günü partisine arkadaşlarını ve akrabalarını çağırdılar.,13,201,CO439307,NULL
1745071852,c98e53191c8d693e1c1b81baf628bc22,PennController,33,0,filler,NULL,PennController,31,_Header_,Start,1745071020950,1745071025109,1745071047190,Evet,gram,undefined,Cümlede 'akraba' kelimesi geçti mi?,,,filler,Doğum günü partisine arkadaşlarını ve akrabalarını çağırdılar.,13,201,CO439307,NULL
1745071852,c98e53191c8d693e1c1b81baf628bc22,PennController,33,0,filler,NULL,PennController,31,_Header_,End,1745071020950,1745071025109,1745071047190,Evet,gram,undefined,Cümlede 'akraba' kelimesi geçti mi?,,,filler,Doğum günü partisine arkadaşlarını ve akrabalarını çağırdılar.,13,201,CO439307,NULL
1745071852,c98e53191c8d693e1c1b81baf628bc22,PennController,33,0,filler,NULL,Text,Doğum günü partisine arkadaşlarını ve akrabalarını çağırdılar.,Print,NA,1745071020951,1745071025109,1745071047190,Evet,gram,undefined,Cümlede 'akraba' kelimesi geçti mi?,,,filler,Doğum günü partisine arkadaşlarını ve akrabalarını çağırdılar.,13,201,CO439307,NULL
1745071852,c98e53191c8d693e1c1b81baf628bc22,PennController,33,0,filler,NULL,Scale,scale,Choice,oldukça iyi,1745071046111,1745071025109,1745071047190,Evet,gram,undefined,Cümlede 'akraba' kelimesi geçti mi?,,,filler,Doğum günü partisine arkadaşlarını ve akrabalarını çağırdılar.,13,201,CO439307,NULL
1745071852,c98e53191c8d693e1c1b81baf628bc22,PennController,33,0,filler,NULL,Text,questionasked,Print,NA,1745071047191,1745071025109,1745071047190,Evet,gram,undefined,Cümlede 'akraba' kelimesi geçti mi?,,,filler,Doğum günü partisine arkadaşlarını ve akrabalarını çağırdılar.,13,201,CO439307,NULL
1745071852,c98e53191c8d693e1c1b81baf628bc22,PennController,33,0,filler,NULL,Scale,answer,Choice,Evet,1745071050494,1745071025109,1745071047190,Evet,gram,undefined,Cümlede 'akraba' kelimesi geçti mi?,,,filler,Doğum günü partisine arkadaşlarını ve akrabalarını çağırdılar.,13,201,CO439307,NULL
1745071852,c98e53191c8d693e1c1b81baf628bc22,PennController,33,0,filler,NULL,Scale,answer,Evet,checked,1745071051334,1745071025109,1745071047190,Evet,gram,undefined,Cümlede 'akraba' kelimesi geçti mi?,,,filler,Doğum günü partisine arkadaşlarını ve akrabalarını çağırdılar.,13,201,CO439307,Status
1745071852,c98e53191c8d693e1c1b81baf628bc22,PennController,33,0,filler,NULL,Scale,answer,Hayır,unchecked,1745071051334,1745071025109,1745071047190,Evet,gram,undefined,Cümlede 'akraba' kelimesi geçti mi?,,,filler,Doğum günü partisine arkadaşlarını ve akrabalarını çağırdılar.,13,201,CO439307,Status
1745071852,c98e53191c8d693e1c1b81baf628bc22,PennController,33,0,filler,NULL,PennController,31,_Trial_,End,1745071051334,1745071025109,1745071047190,Evet,gram,undefined,Cümlede 'akraba' kelimesi geçti mi?,,,filler,Doğum günü partisine arkadaşlarını ve akrabalarını çağırdılar.,13,201,CO439307,NULL
1745071852,c98e53191c8d693e1c1b81baf628bc22,PennController,41,0,filler,NULL,PennController,39,_Trial_,Start,1745071051338,10403,NA,,gram,undefined,,,,filler,Sevda beslenme çantasındaki elmayı ve armutu çürüyene kadar bekletmiş.,14,209,CO439307,NULL
1745071852,c98e53191c8d693e1c1b81baf628bc22,PennController,41,0,filler,NULL,PennController,39,_Header_,Start,1745071051338,10403,NA,,gram,undefined,,,,filler,Sevda beslenme çantasındaki elmayı ve armutu çürüyene kadar bekletmiş.,14,209,CO439307,NULL
1745071852,c98e53191c8d693e1c1b81baf628bc22,PennController,41,0,filler,NULL,PennController,39,_Header_,End,1745071051338,10403,NA,,gram,undefined,,,,filler,Sevda beslenme çantasındaki elmayı ve armutu çürüyene kadar bekletmiş.,14,209,CO439307,NULL
1745071852,c98e53191c8d693e1c1b81baf628bc22,PennController,41,0,filler,NULL,Text,Sevda beslenme çantasındaki elmayı ve armutu çürüyene kadar bekletmiş.,Print,NA,1745071051339,10403,NA,,gram,undefined,,,,filler,Sevda beslenme çantasındaki elmayı ve armutu çürüyene kadar bekletmiş.,14,209,CO439307,NULL
1745071852,c98e53191c8d693e1c1b81baf628bc22,PennController,41,0,filler,NULL,Scale,scale,Choice,oldukça iyi,1745071060752,10403,NA,,gram,undefined,,,,filler,Sevda beslenme çantasındaki elmayı ve armutu çürüyene kadar bekletmiş.,14,209,CO439307,NULL
1745071852,c98e53191c8d693e1c1b81baf628bc22,PennController,41,0,filler,NULL,PennController,39,_Trial_,End,1745071061745,10403,NA,,gram,undefined,,,,filler,Sevda beslenme çantasındaki elmayı ve armutu çürüyene kadar bekletmiş.,14,209,CO439307,NULL
1745071852,c98e53191c8d693e1c1b81baf628bc22,PennController,101,0,exp,NULL,PennController,99,_Trial_,Start,1745071061747,8363,NA,,g,undefined,,peri,ejderha,exp,Melis çocuk kitabı için ejderha ve perilik bir seri başlatmayı düşündü.,15,29,CO439307,NULL
1745071852,c98e53191c8d693e1c1b81baf628bc22,PennController,101,0,exp,NULL,PennController,99,_Header_,Start,1745071061747,8363,NA,,g,undefined,,peri,ejderha,exp,Melis çocuk kitabı için ejderha ve perilik bir seri başlatmayı düşündü.,15,29,CO439307,NULL
1745071852,c98e53191c8d693e1c1b81baf628bc22,PennController,101,0,exp,NULL,PennController,99,_Header_,End,1745071061748,8363,NA,,g,undefined,,peri,ejderha,exp,Melis çocuk kitabı için ejderha ve perilik bir seri başlatmayı düşündü.,15,29,CO439307,NULL
1745071852,c98e53191c8d693e1c1b81baf628bc22,PennController,101,0,exp,NULL,Text,Melis çocuk kitabı için ejderha ve perilik bir seri başlatmayı düşündü.,Print,NA,1745071061749,8363,NA,,g,undefined,,peri,ejderha,exp,Melis çocuk kitabı için ejderha ve perilik bir seri başlatmayı düşündü.,15,29,CO439307,NULL
1745071852,c98e53191c8d693e1c1b81baf628bc22,PennController,101,0,exp,NULL,Scale,scale,Choice,kötü,1745071068608,8363,NA,,g,undefined,,peri,ejderha,exp,Melis çocuk kitabı için ejderha ve perilik bir seri başlatmayı düşündü.,15,29,CO439307,NULL
1745071852,c98e53191c8d693e1c1b81baf628bc22,PennController,101,0,exp,NULL,PennController,99,_Trial_,End,1745071070115,8363,NA,,g,undefined,,peri,ejderha,exp,Melis çocuk kitabı için ejderha ve perilik bir seri başlatmayı düşündü.,15,29,CO439307,NULL
1745071852,c98e53191c8d693e1c1b81baf628bc22,PennController,9,0,filler,NULL,PennController,7,_Trial_,Start,1745071070117,1745071073008,1745071075929,Evet,ungram,undefined,Hasan yarışı kazanmak istiyor mu?,,,filler,Bugünkü yarışı kazanmak dostum Hasan çok istiyor.,16,101,CO439307,NULL
1745071852,c98e53191c8d693e1c1b81baf628bc22,PennController,9,0,filler,NULL,PennController,7,_Header_,Start,1745071070117,1745071073008,1745071075929,Evet,ungram,undefined,Hasan yarışı kazanmak istiyor mu?,,,filler,Bugünkü yarışı kazanmak dostum Hasan çok istiyor.,16,101,CO439307,NULL
1745071852,c98e53191c8d693e1c1b81baf628bc22,PennController,9,0,filler,NULL,PennController,7,_Header_,End,1745071070118,1745071073008,1745071075929,Evet,ungram,undefined,Hasan yarışı kazanmak istiyor mu?,,,filler,Bugünkü yarışı kazanmak dostum Hasan çok istiyor.,16,101,CO439307,NULL
1745071852,c98e53191c8d693e1c1b81baf628bc22,PennController,9,0,filler,NULL,Text,Bugünkü yarışı kazanmak dostum Hasan çok istiyor.,Print,NA,1745071070119,1745071073008,1745071075929,Evet,ungram,undefined,Hasan yarışı kazanmak istiyor mu?,,,filler,Bugünkü yarışı kazanmak dostum Hasan çok istiyor.,16,101,CO439307,NULL
1745071852,c98e53191c8d693e1c1b81baf628bc22,PennController,9,0,filler,NULL,Scale,scale,Choice,oldukça kötü,1745071074713,1745071073008,1745071075929,Evet,ungram,undefined,Hasan yarışı kazanmak istiyor mu?,,,filler,Bugünkü yarışı kazanmak dostum Hasan çok istiyor.,16,101,CO439307,NULL
1745071852,c98e53191c8d693e1c1b81baf628bc22,PennController,9,0,filler,NULL,Text,questionasked,Print,NA,1745071075929,1745071073008,1745071075929,Evet,ungram,undefined,Hasan yarışı kazanmak istiyor mu?,,,filler,Bugünkü yarışı kazanmak dostum Hasan çok istiyor.,16,101,CO439307,NULL
1745071852,c98e53191c8d693e1c1b81baf628bc22,PennController,9,0,filler,NULL,Scale,answer,Choice,Evet,1745071078001,1745071073008,1745071075929,Evet,ungram,undefined,Hasan yarışı kazanmak istiyor mu?,,,filler,Bugünkü yarışı kazanmak dostum Hasan çok istiyor.,16,101,CO439307,NULL
1745071852,c98e53191c8d693e1c1b81baf628bc22,PennController,9,0,filler,NULL,Scale,answer,Evet,checked,1745071078816,1745071073008,1745071075929,Evet,ungram,undefined,Hasan yarışı kazanmak istiyor mu?,,,filler,Bugünkü yarışı kazanmak dostum Hasan çok istiyor.,16,101,CO439307,Status
1745071852,c98e53191c8d693e1c1b81baf628bc22,PennController,9,0,filler,NULL,Scale,answer,Hayır,unchecked,1745071078816,1745071073008,1745071075929,Evet,ungram,undefined,Hasan yarışı kazanmak istiyor mu?,,,filler,Bugünkü yarışı kazanmak dostum Hasan çok istiyor.,16,101,CO439307,Status
1745071852,c98e53191c8d693e1c1b81baf628bc22,PennController,9,0,filler,NULL,PennController,7,_Trial_,End,1745071078816,1745071073008,1745071075929,Evet,ungram,undefined,Hasan yarışı kazanmak istiyor mu?,,,filler,Bugünkü yarışı kazanmak dostum Hasan çok istiyor.,16,101,CO439307,NULL
1745071852,c98e53191c8d693e1c1b81baf628bc22,PennController,39,0,filler,NULL,PennController,37,_Trial_,Start,1745071078821,10567,NA,,gram,undefined,,,,filler,Alışveriş merkezinde gördüğü pahalı ayakkabıya ve çantaya bayılmış.,17,207,CO439307,NULL
1745071852,c98e53191c8d693e1c1b81baf628bc22,PennController,39,0,filler,NULL,PennController,37,_Header_,Start,1745071078821,10567,NA,,gram,undefined,,,,filler,Alışveriş merkezinde gördüğü pahalı ayakkabıya ve çantaya bayılmış.,17,207,CO439307,NULL
1745071852,c98e53191c8d693e1c1b81baf628bc22,PennController,39,0,filler,NULL,PennController,37,_Header_,End,1745071078821,10567,NA,,gram,undefined,,,,filler,Alışveriş merkezinde gördüğü pahalı ayakkabıya ve çantaya bayılmış.,17,207,CO439307,NULL
1745071852,c98e53191c8d693e1c1b81baf628bc22,PennController,39,0,filler,NULL,Text,Alışveriş merkezinde gördüğü pahalı ayakkabıya ve çantaya bayılmış.,Print,NA,1745071078823,10567,NA,,gram,undefined,,,,filler,Alışveriş merkezinde gördüğü pahalı ayakkabıya ve çantaya bayılmış.,17,207,CO439307,NULL
1745071852,c98e53191c8d693e1c1b81baf628bc22,PennController,39,0,filler,NULL,Scale,scale,Choice,oldukça iyi,1745071088311,10567,NA,,gram,undefined,,,,filler,Alışveriş merkezinde gördüğü pahalı ayakkabıya ve çantaya bayılmış.,17,207,CO439307,NULL
1745071852,c98e53191c8d693e1c1b81baf628bc22,PennController,39,0,filler,NULL,PennController,37,_Trial_,End,1745071089393,10567,NA,,gram,undefined,,,,filler,Alışveriş merkezinde gördüğü pahalı ayakkabıya ve çantaya bayılmış.,17,207,CO439307,NULL
1745071852,c98e53191c8d693e1c1b81baf628bc22,PennController,102,0,exp,NULL,PennController,100,_Trial_,Start,1745071089395,11654,NA,,f,undefined,,düğün,cenaze,exp,Asuman dergi yazısı için düğünsüz ve cenazesiz bir program önerdi.,18,30,CO439307,NULL
1745071852,c98e53191c8d693e1c1b81baf628bc22,PennController,102,0,exp,NULL,PennController,100,_Header_,Start,1745071089395,11654,NA,,f,undefined,,düğün,cenaze,exp,Asuman dergi yazısı için düğünsüz ve cenazesiz bir program önerdi.,18,30,CO439307,NULL
1745071852,c98e53191c8d693e1c1b81baf628bc22,PennController,102,0,exp,NULL,PennController,100,_Header_,End,1745071089396,11654,NA,,f,undefined,,düğün,cenaze,exp,Asuman dergi yazısı için düğünsüz ve cenazesiz bir program önerdi.,18,30,CO439307,NULL
1745071852,c98e53191c8d693e1c1b81baf628bc22,PennController,102,0,exp,NULL,Text,Asuman dergi yazısı için düğünsüz ve cenazesiz bir program önerdi.,Print,NA,1745071089397,11654,NA,,f,undefined,,düğün,cenaze,exp,Asuman dergi yazısı için düğünsüz ve cenazesiz bir program önerdi.,18,30,CO439307,NULL
1745071852,c98e53191c8d693e1c1b81baf628bc22,PennController,102,0,exp,NULL,Scale,scale,Choice,kötü sayılır,1745071099983,11654,NA,,f,undefined,,düğün,cenaze,exp,Asuman dergi yazısı için düğünsüz ve cenazesiz bir program önerdi.,18,30,CO439307,NULL
1745071852,c98e53191c8d693e1c1b81baf628bc22,PennController,102,0,exp,NULL,PennController,100,_Trial_,End,1745071101054,11654,NA,,f,undefined,,düğün,cenaze,exp,Asuman dergi yazısı için düğünsüz ve cenazesiz bir program önerdi.,18,30,CO439307,NULL
1745071852,c98e53191c8d693e1c1b81baf628bc22,PennController,31,0,filler,NULL,PennController,29,_Trial_,Start,1745071101057,5982,NA,,ungram,undefined,,,,filler,Kimse doktor geldiğinde zaten şaşırdı.,19,123,CO439307,NULL
1745071852,c98e53191c8d693e1c1b81baf628bc22,PennController,31,0,filler,NULL,PennController,29,_Header_,Start,1745071101057,5982,NA,,ungram,undefined,,,,filler,Kimse doktor geldiğinde zaten şaşırdı.,19,123,CO439307,NULL
1745071852,c98e53191c8d693e1c1b81baf628bc22,PennController,31,0,filler,NULL,PennController,29,_Header_,End,1745071101058,5982,NA,,ungram,undefined,,,,filler,Kimse doktor geldiğinde zaten şaşırdı.,19,123,CO439307,NULL
1745071852,c98e53191c8d693e1c1b81baf628bc22,PennController,31,0,filler,NULL,Text,Kimse doktor geldiğinde zaten şaşırdı.,Print,NA,1745071101059,5982,NA,,ungram,undefined,,,,filler,Kimse doktor geldiğinde zaten şaşırdı.,19,123,CO439307,NULL
1745071852,c98e53191c8d693e1c1b81baf628bc22,PennController,31,0,filler,NULL,Scale,scale,Choice,oldukça kötü,1745071105421,5982,NA,,ungram,undefined,,,,filler,Kimse doktor geldiğinde zaten şaşırdı.,19,123,CO439307,NULL
1745071852,c98e53191c8d693e1c1b81baf628bc22,PennController,31,0,filler,NULL,PennController,29,_Trial_,End,1745071107043,5982,NA,,ungram,undefined,,,,filler,Kimse doktor geldiğinde zaten şaşırdı.,19,123,CO439307,NULL
1745071852,c98e53191c8d693e1c1b81baf628bc22,PennController,37,0,filler,NULL,PennController,35,_Trial_,Start,1745071107046,1745071109651,1745071115622,Hayır,gram,undefined,Dede sağlıklı mı?,,,filler,Düğün günü koşturmaca arasında yaşlı ve yatalak dedesi ile de vedalaştı.,20,205,CO439307,NULL
1745071852,c98e53191c8d693e1c1b81baf628bc22,PennController,37,0,filler,NULL,PennController,35,_Header_,Start,1745071107046,1745071109651,1745071115622,Hayır,gram,undefined,Dede sağlıklı mı?,,,filler,Düğün günü koşturmaca arasında yaşlı ve yatalak dedesi ile de vedalaştı.,20,205,CO439307,NULL
1745071852,c98e53191c8d693e1c1b81baf628bc22,PennController,37,0,filler,NULL,PennController,35,_Header_,End,1745071107046,1745071109651,1745071115622,Hayır,gram,undefined,Dede sağlıklı mı?,,,filler,Düğün günü koşturmaca arasında yaşlı ve yatalak dedesi ile de vedalaştı.,20,205,CO439307,NULL
1745071852,c98e53191c8d693e1c1b81baf628bc22,PennController,37,0,filler,NULL,Text,Düğün günü koşturmaca arasında yaşlı ve yatalak dedesi ile de vedalaştı.,Print,NA,1745071107047,1745071109651,1745071115622,Hayır,gram,undefined,Dede sağlıklı mı?,,,filler,Düğün günü koşturmaca arasında yaşlı ve yatalak dedesi ile de vedalaştı.,20,205,CO439307,NULL
1745071852,c98e53191c8d693e1c1b81baf628bc22,PennController,37,0,filler,NULL,Scale,scale,Choice,oldukça iyi,1745071114586,1745071109651,1745071115622,Hayır,gram,undefined,Dede sağlıklı mı?,,,filler,Düğün günü koşturmaca arasında yaşlı ve yatalak dedesi ile de vedalaştı.,20,205,CO439307,NULL
1745071852,c98e53191c8d693e1c1b81baf628bc22,PennController,37,0,filler,NULL,Text,questionasked,Print,NA,1745071115623,1745071109651,1745071115622,Hayır,gram,undefined,Dede sağlıklı mı?,,,filler,Düğün günü koşturmaca arasında yaşlı ve yatalak dedesi ile de vedalaştı.,20,205,CO439307,NULL
1745071852,c98e53191c8d693e1c1b81baf628bc22,PennController,37,0,filler,NULL,Scale,answer,Choice,Hayır,1745071117463,1745071109651,1745071115622,Hayır,gram,undefined,Dede sağlıklı mı?,,,filler,Düğün günü koşturmaca arasında yaşlı ve yatalak dedesi ile de vedalaştı.,20,205,CO439307,NULL
1745071852,c98e53191c8d693e1c1b81baf628bc22,PennController,37,0,filler,NULL,Scale,answer,Evet,unchecked,1745071118211,1745071109651,1745071115622,Hayır,gram,undefined,Dede sağlıklı mı?,,,filler,Düğün günü koşturmaca arasında yaşlı ve yatalak dedesi ile de vedalaştı.,20,205,CO439307,Status
1745071852,c98e53191c8d693e1c1b81baf628bc22,PennController,37,0,filler,NULL,Scale,answer,Hayır,checked,1745071118211,1745071109651,1745071115622,Hayır,gram,undefined,Dede sağlıklı mı?,,,filler,Düğün günü koşturmaca arasında yaşlı ve yatalak dedesi ile de vedalaştı.,20,205,CO439307,Status
1745071852,c98e53191c8d693e1c1b81baf628bc22,PennController,37,0,filler,NULL,PennController,35,_Trial_,End,1745071118211,1745071109651,1745071115622,Hayır,gram,undefined,Dede sağlıklı mı?,,,filler,Düğün günü koşturmaca arasında yaşlı ve yatalak dedesi ile de vedalaştı.,20,205,CO439307,NULL
1745071852,c98e53191c8d693e1c1b81baf628bc22,PennController,74,0,exp,NULL,PennController,72,_Trial_,Start,1745071118213,7660,NA,,b,undefined,,sandalye,masa,exp,Ömer yeni evine masacı ve sandalyeci bir usta getirdi.,21,2,CO439307,NULL
1745071852,c98e53191c8d693e1c1b81baf628bc22,PennController,74,0,exp,NULL,PennController,72,_Header_,Start,1745071118213,7660,NA,,b,undefined,,sandalye,masa,exp,Ömer yeni evine masacı ve sandalyeci bir usta getirdi.,21,2,CO439307,NULL
1745071852,c98e53191c8d693e1c1b81baf628bc22,PennController,74,0,exp,NULL,PennController,72,_Header_,End,1745071118214,7660,NA,,b,undefined,,sandalye,masa,exp,Ömer yeni evine masacı ve sandalyeci bir usta getirdi.,21,2,CO439307,NULL
1745071852,c98e53191c8d693e1c1b81baf628bc22,PennController,74,0,exp,NULL,Text,Ömer yeni evine masacı ve sandalyeci bir usta getirdi.,Print,NA,1745071118215,7660,NA,,b,undefined,,sandalye,masa,exp,Ömer yeni evine masacı ve sandalyeci bir usta getirdi.,21,2,CO439307,NULL
1745071852,c98e53191c8d693e1c1b81baf628bc22,PennController,74,0,exp,NULL,Scale,scale,Choice,kötü,1745071124786,7660,NA,,b,undefined,,sandalye,masa,exp,Ömer yeni evine masacı ve sandalyeci bir usta getirdi.,21,2,CO439307,NULL
1745071852,c98e53191c8d693e1c1b81baf628bc22,PennController,74,0,exp,NULL,PennController,72,_Trial_,End,1745071125877,7660,NA,,b,undefined,,sandalye,masa,exp,Ömer yeni evine masacı ve sandalyeci bir usta getirdi.,21,2,CO439307,NULL
1745071852,c98e53191c8d693e1c1b81baf628bc22,PennController,55,0,filler,NULL,PennController,53,_Trial_,Start,1745071125879,1745071128901,1745071132713,Evet,gram,undefined,Cümlede 'sıcak' kelimesi geçti mi?,,,filler,Kahvaltı sofrasına sıcak ve taze ekmek olmadan oturulmaz.,22,223,CO439307,NULL
1745071852,c98e53191c8d693e1c1b81baf628bc22,PennController,55,0,filler,NULL,PennController,53,_Header_,Start,1745071125879,1745071128901,1745071132713,Evet,gram,undefined,Cümlede 'sıcak' kelimesi geçti mi?,,,filler,Kahvaltı sofrasına sıcak ve taze ekmek olmadan oturulmaz.,22,223,CO439307,NULL
1745071852,c98e53191c8d693e1c1b81baf628bc22,PennController,55,0,filler,NULL,PennController,53,_Header_,End,1745071125880,1745071128901,1745071132713,Evet,gram,undefined,Cümlede 'sıcak' kelimesi geçti mi?,,,filler,Kahvaltı sofrasına sıcak ve taze ekmek olmadan oturulmaz.,22,223,CO439307,NULL
1745071852,c98e53191c8d693e1c1b81baf628bc22,PennController,55,0,filler,NULL,Text,Kahvaltı sofrasına sıcak ve taze ekmek olmadan oturulmaz.,Print,NA,1745071125881,1745071128901,1745071132713,Evet,gram,undefined,Cümlede 'sıcak' kelimesi geçti mi?,,,filler,Kahvaltı sofrasına sıcak ve taze ekmek olmadan oturulmaz.,22,223,CO439307,NULL
1745071852,c98e53191c8d693e1c1b81baf628bc22,PennController,55,0,filler,NULL,Scale,scale,Choice,oldukça iyi,1745071131686,1745071128901,1745071132713,Evet,gram,undefined,Cümlede 'sıcak' kelimesi geçti mi?,,,filler,Kahvaltı sofrasına sıcak ve taze ekmek olmadan oturulmaz.,22,223,CO439307,NULL
1745071852,c98e53191c8d693e1c1b81baf628bc22,PennController,55,0,filler,NULL,Text,questionasked,Print,NA,1745071132714,1745071128901,1745071132713,Evet,gram,undefined,Cümlede 'sıcak' kelimesi geçti mi?,,,filler,Kahvaltı sofrasına sıcak ve taze ekmek olmadan oturulmaz.,22,223,CO439307,NULL
1745071852,c98e53191c8d693e1c1b81baf628bc22,PennController,55,0,filler,NULL,Scale,answer,Choice,Evet,1745071134910,1745071128901,1745071132713,Evet,gram,undefined,Cümlede 'sıcak' kelimesi geçti mi?,,,filler,Kahvaltı sofrasına sıcak ve taze ekmek olmadan oturulmaz.,22,223,CO439307,NULL
1745071852,c98e53191c8d693e1c1b81baf628bc22,PennController,55,0,filler,NULL,Scale,answer,Evet,checked,1745071135720,1745071128901,1745071132713,Evet,gram,undefined,Cümlede 'sıcak' kelimesi geçti mi?,,,filler,Kahvaltı sofrasına sıcak ve taze ekmek olmadan oturulmaz.,22,223,CO439307,Status
1745071852,c98e53191c8d693e1c1b81baf628bc22,PennController,55,0,filler,NULL,Scale,answer,Hayır,unchecked,1745071135720,1745071128901,1745071132713,Evet,gram,undefined,Cümlede 'sıcak' kelimesi geçti mi?,,,filler,Kahvaltı sofrasına sıcak ve taze ekmek olmadan oturulmaz.,22,223,CO439307,Status
1745071852,c98e53191c8d693e1c1b81baf628bc22,PennController,55,0,filler,NULL,PennController,53,_Trial_,End,1745071135720,1745071128901,1745071132713,Evet,gram,undefined,Cümlede 'sıcak' kelimesi geçti mi?,,,filler,Kahvaltı sofrasına sıcak ve taze ekmek olmadan oturulmaz.,22,223,CO439307,NULL
1745071852,c98e53191c8d693e1c1b81baf628bc22,PennController,46,0,filler,NULL,PennController,44,_Trial_,Start,1745071135723,13123,NA,,gram,undefined,,,,filler,Cem tavuklara ve horozlara yeni satılan pahalı yemden almış.,23,214,CO439307,NULL
1745071852,c98e53191c8d693e1c1b81baf628bc22,PennController,46,0,filler,NULL,PennController,44,_Header_,Start,1745071135723,13123,NA,,gram,undefined,,,,filler,Cem tavuklara ve horozlara yeni satılan pahalı yemden almış.,23,214,CO439307,NULL
1745071852,c98e53191c8d693e1c1b81baf628bc22,PennController,46,0,filler,NULL,PennController,44,_Header_,End,1745071135724,13123,NA,,gram,undefined,,,,filler,Cem tavuklara ve horozlara yeni satılan pahalı yemden almış.,23,214,CO439307,NULL
1745071852,c98e53191c8d693e1c1b81baf628bc22,PennController,46,0,filler,NULL,Text,Cem tavuklara ve horozlara yeni satılan pahalı yemden almış.,Print,NA,1745071135725,13123,NA,,gram,undefined,,,,filler,Cem tavuklara ve horozlara yeni satılan pahalı yemden almış.,23,214,CO439307,NULL
1745071852,c98e53191c8d693e1c1b81baf628bc22,PennController,46,0,filler,NULL,Scale,scale,Choice,kötü sayılır,1745071147529,13123,NA,,gram,undefined,,,,filler,Cem tavuklara ve horozlara yeni satılan pahalı yemden almış.,23,214,CO439307,NULL
1745071852,c98e53191c8d693e1c1b81baf628bc22,PennController,46,0,filler,NULL,PennController,44,_Trial_,End,1745071148851,13123,NA,,gram,undefined,,,,filler,Cem tavuklara ve horozlara yeni satılan pahalı yemden almış.,23,214,CO439307,NULL
1745071852,c98e53191c8d693e1c1b81baf628bc22,PennController,97,0,exp,NULL,PennController,95,_Trial_,Start,1745071148854,6721,NA,,c,undefined,,boyun,burun,exp,İzel toplantı sırasında burun ve boyunlu bir maske inceledi.,24,25,CO439307,NULL
1745071852,c98e53191c8d693e1c1b81baf628bc22,PennController,97,0,exp,NULL,PennController,95,_Header_,Start,1745071148854,6721,NA,,c,undefined,,boyun,burun,exp,İzel toplantı sırasında burun ve boyunlu bir maske inceledi.,24,25,CO439307,NULL
1745071852,c98e53191c8d693e1c1b81baf628bc22,PennController,97,0,exp,NULL,PennController,95,_Header_,End,1745071148854,6721,NA,,c,undefined,,boyun,burun,exp,İzel toplantı sırasında burun ve boyunlu bir maske inceledi.,24,25,CO439307,NULL
1745071852,c98e53191c8d693e1c1b81baf628bc22,PennController,97,0,exp,NULL,Text,İzel toplantı sırasında burun ve boyunlu bir maske inceledi.,Print,NA,1745071148855,6721,NA,,c,undefined,,boyun,burun,exp,İzel toplantı sırasında burun ve boyunlu bir maske inceledi.,24,25,CO439307,NULL
1745071852,c98e53191c8d693e1c1b81baf628bc22,PennController,97,0,exp,NULL,Scale,scale,Choice,oldukça kötü,1745071154577,6721,NA,,c,undefined,,boyun,burun,exp,İzel toplantı sırasında burun ve boyunlu bir maske inceledi.,24,25,CO439307,NULL
1745071852,c98e53191c8d693e1c1b81baf628bc22,PennController,97,0,exp,NULL,PennController,95,_Trial_,End,1745071155578,6721,NA,,c,undefined,,boyun,burun,exp,İzel toplantı sırasında burun ve boyunlu bir maske inceledi.,24,25,CO439307,NULL
1745071852,c98e53191c8d693e1c1b81baf628bc22,PennController,70,0,filler,NULL,PennController,68,_Trial_,Start,1745071155581,10126,NA,,gram,undefined,,,,filler,Leyla yıkama ve kurutma makinasının önündeki sırayı görünce geri döndü.,25,238,CO439307,NULL
1745071852,c98e53191c8d693e1c1b81baf628bc22,PennController,70,0,filler,NULL,PennController,68,_Header_,Start,1745071155582,10126,NA,,gram,undefined,,,,filler,Leyla yıkama ve kurutma makinasının önündeki sırayı görünce geri döndü.,25,238,CO439307,NULL
1745071852,c98e53191c8d693e1c1b81baf628bc22,PennController,70,0,filler,NULL,PennController,68,_Header_,End,1745071155582,10126,NA,,gram,undefined,,,,filler,Leyla yıkama ve kurutma makinasının önündeki sırayı görünce geri döndü.,25,238,CO439307,NULL
1745071852,c98e53191c8d693e1c1b81baf628bc22,PennController,70,0,filler,NULL,Text,Leyla yıkama ve kurutma makinasının önündeki sırayı görünce geri döndü.,Print,NA,1745071155583,10126,NA,,gram,undefined,,,,filler,Leyla yıkama ve kurutma makinasının önündeki sırayı görünce geri döndü.,25,238,CO439307,NULL
1745071852,c98e53191c8d693e1c1b81baf628bc22,PennController,70,0,filler,NULL,Scale,scale,Choice,oldukça iyi,1745071159721,10126,NA,,gram,undefined,,,,filler,Leyla yıkama ve kurutma makinasının önündeki sırayı görünce geri döndü.,25,238,CO439307,NULL
1745071852,c98e53191c8d693e1c1b81baf628bc22,PennController,70,0,filler,NULL,PennController,68,_Trial_,End,1745071165711,10126,NA,,gram,undefined,,,,filler,Leyla yıkama ve kurutma makinasının önündeki sırayı görünce geri döndü.,25,238,CO439307,NULL
1745071852,c98e53191c8d693e1c1b81baf628bc22,PennController,35,0,filler,NULL,PennController,33,_Trial_,Start,1745071165714,1745071168644,1745071177262,Evet,gram,undefined,Tepeler zorlu muydu?,,,filler,Piknik alanına yüksek ve zorlu tepeleri aşarak varmamız gerekti.,26,203,CO439307,NULL
1745071852,c98e53191c8d693e1c1b81baf628bc22,PennController,35,0,filler,NULL,PennController,33,_Header_,Start,1745071165714,1745071168644,1745071177262,Evet,gram,undefined,Tepeler zorlu muydu?,,,filler,Piknik alanına yüksek ve zorlu tepeleri aşarak varmamız gerekti.,26,203,CO439307,NULL
1745071852,c98e53191c8d693e1c1b81baf628bc22,PennController,35,0,filler,NULL,PennController,33,_Header_,End,1745071165714,1745071168644,1745071177262,Evet,gram,undefined,Tepeler zorlu muydu?,,,filler,Piknik alanına yüksek ve zorlu tepeleri aşarak varmamız gerekti.,26,203,CO439307,NULL
1745071852,c98e53191c8d693e1c1b81baf628bc22,PennController,35,0,filler,NULL,Text,Piknik alanına yüksek ve zorlu tepeleri aşarak varmamız gerekti.,Print,NA,1745071165715,1745071168644,1745071177262,Evet,gram,undefined,Tepeler zorlu muydu?,,,filler,Piknik alanına yüksek ve zorlu tepeleri aşarak varmamız gerekti.,26,203,CO439307,NULL
1745071852,c98e53191c8d693e1c1b81baf628bc22,PennController,35,0,filler,NULL,Scale,scale,Choice,iyi sayılır,1745071175415,1745071168644,1745071177262,Evet,gram,undefined,Tepeler zorlu muydu?,,,filler,Piknik alanına yüksek ve zorlu tepeleri aşarak varmamız gerekti.,26,203,CO439307,NULL
1745071852,c98e53191c8d693e1c1b81baf628bc22,PennController,35,0,filler,NULL,Text,questionasked,Print,NA,1745071177263,1745071168644,1745071177262,Evet,gram,undefined,Tepeler zorlu muydu?,,,filler,Piknik alanına yüksek ve zorlu tepeleri aşarak varmamız gerekti.,26,203,CO439307,NULL
1745071852,c98e53191c8d693e1c1b81baf628bc22,PennController,35,0,filler,NULL,Scale,answer,Choice,Evet,1745071179236,1745071168644,1745071177262,Evet,gram,undefined,Tepeler zorlu muydu?,,,filler,Piknik alanına yüksek ve zorlu tepeleri aşarak varmamız gerekti.,26,203,CO439307,NULL
1745071852,c98e53191c8d693e1c1b81baf628bc22,PennController,35,0,filler,NULL,Scale,answer,Evet,checked,1745071180178,1745071168644,1745071177262,Evet,gram,undefined,Tepeler zorlu muydu?,,,filler,Piknik alanına yüksek ve zorlu tepeleri aşarak varmamız gerekti.,26,203,CO439307,Status
1745071852,c98e53191c8d693e1c1b81baf628bc22,PennController,35,0,filler,NULL,Scale,answer,Hayır,unchecked,1745071180178,1745071168644,1745071177262,Evet,gram,undefined,Tepeler zorlu muydu?,,,filler,Piknik alanına yüksek ve zorlu tepeleri aşarak varmamız gerekti.,26,203,CO439307,Status
1745071852,c98e53191c8d693e1c1b81baf628bc22,PennController,35,0,filler,NULL,PennController,33,_Trial_,End,1745071180179,1745071168644,1745071177262,Evet,gram,undefined,Tepeler zorlu muydu?,,,filler,Piknik alanına yüksek ve zorlu tepeleri aşarak varmamız gerekti.,26,203,CO439307,NULL
1745071852,c98e53191c8d693e1c1b81baf628bc22,PennController,98,0,exp,NULL,PennController,96,_Trial_,Start,1745071180182,8440,NA,,b,undefined,,canavar,hayalet,exp,Sinan gece yarısı hayaletçi ve canavarcı bir yazarla röportaj yaptı.,27,26,CO439307,NULL
1745071852,c98e53191c8d693e1c1b81baf628bc22,PennController,98,0,exp,NULL,PennController,96,_Header_,Start,1745071180182,8440,NA,,b,undefined,,canavar,hayalet,exp,Sinan gece yarısı hayaletçi ve canavarcı bir yazarla röportaj yaptı.,27,26,CO439307,NULL
1745071852,c98e53191c8d693e1c1b81baf628bc22,PennController,98,0,exp,NULL,PennController,96,_Header_,End,1745071180182,8440,NA,,b,undefined,,canavar,hayalet,exp,Sinan gece yarısı hayaletçi ve canavarcı bir yazarla röportaj yaptı.,27,26,CO439307,NULL
1745071852,c98e53191c8d693e1c1b81baf628bc22,PennController,98,0,exp,NULL,Text,Sinan gece yarısı hayaletçi ve canavarcı bir yazarla röportaj yaptı.,Print,NA,1745071180183,8440,NA,,b,undefined,,canavar,hayalet,exp,Sinan gece yarısı hayaletçi ve canavarcı bir yazarla röportaj yaptı.,27,26,CO439307,NULL
1745071852,c98e53191c8d693e1c1b81baf628bc22,PennController,98,0,exp,NULL,Scale,scale,Choice,oldukça kötü,1745071185483,8440,NA,,b,undefined,,canavar,hayalet,exp,Sinan gece yarısı hayaletçi ve canavarcı bir yazarla röportaj yaptı.,27,26,CO439307,NULL
1745071852,c98e53191c8d693e1c1b81baf628bc22,PennController,98,0,exp,NULL,PennController,96,_Trial_,End,1745071188625,8440,NA,,b,undefined,,canavar,hayalet,exp,Sinan gece yarısı hayaletçi ve canavarcı bir yazarla röportaj yaptı.,27,26,CO439307,NULL
1745071852,c98e53191c8d693e1c1b81baf628bc22,PennController,22,0,filler,NULL,PennController,20,_Trial_,Start,1745071188627,9393,NA,,ungram,undefined,,,,filler,Ziyaretçiye göre kendisine tanınan sürenin belirlendiği biliyordu.,28,114,CO439307,NULL
1745071852,c98e53191c8d693e1c1b81baf628bc22,PennController,22,0,filler,NULL,PennController,20,_Header_,Start,1745071188627,9393,NA,,ungram,undefined,,,,filler,Ziyaretçiye göre kendisine tanınan sürenin belirlendiği biliyordu.,28,114,CO439307,NULL
1745071852,c98e53191c8d693e1c1b81baf628bc22,PennController,22,0,filler,NULL,PennController,20,_Header_,End,1745071188627,9393,NA,,ungram,undefined,,,,filler,Ziyaretçiye göre kendisine tanınan sürenin belirlendiği biliyordu.,28,114,CO439307,NULL
1745071852,c98e53191c8d693e1c1b81baf628bc22,PennController,22,0,filler,NULL,Text,Ziyaretçiye göre kendisine tanınan sürenin belirlendiği biliyordu.,Print,NA,1745071188629,9393,NA,,ungram,undefined,,,,filler,Ziyaretçiye göre kendisine tanınan sürenin belirlendiği biliyordu.,28,114,CO439307,NULL
1745071852,c98e53191c8d693e1c1b81baf628bc22,PennController,22,0,filler,NULL,Scale,scale,Choice,oldukça kötü,1745071196776,9393,NA,,ungram,undefined,,,,filler,Ziyaretçiye göre kendisine tanınan sürenin belirlendiği biliyordu.,28,114,CO439307,NULL
1745071852,c98e53191c8d693e1c1b81baf628bc22,PennController,22,0,filler,NULL,PennController,20,_Trial_,End,1745071198025,9393,NA,,ungram,undefined,,,,filler,Ziyaretçiye göre kendisine tanınan sürenin belirlendiği biliyordu.,28,114,CO439307,NULL
1745071852,c98e53191c8d693e1c1b81baf628bc22,PennController,44,0,filler,NULL,PennController,42,_Trial_,Start,1745071198028,4565,NA,,gram,undefined,,,,filler,Mesut çiftlikteki koyunları ve inekleri her gün tek tek sayıyor.,29,212,CO439307,NULL
1745071852,c98e53191c8d693e1c1b81baf628bc22,PennController,44,0,filler,NULL,PennController,42,_Header_,Start,1745071198028,4565,NA,,gram,undefined,,,,filler,Mesut çiftlikteki koyunları ve inekleri her gün tek tek sayıyor.,29,212,CO439307,NULL
1745071852,c98e53191c8d693e1c1b81baf628bc22,PennController,44,0,filler,NULL,PennController,42,_Header_,End,1745071198028,4565,NA,,gram,undefined,,,,filler,Mesut çiftlikteki koyunları ve inekleri her gün tek tek sayıyor.,29,212,CO439307,NULL
1745071852,c98e53191c8d693e1c1b81baf628bc22,PennController,44,0,filler,NULL,Text,Mesut çiftlikteki koyunları ve inekleri her gün tek tek sayıyor.,Print,NA,1745071198030,4565,NA,,gram,undefined,,,,filler,Mesut çiftlikteki koyunları ve inekleri her gün tek tek sayıyor.,29,212,CO439307,NULL
1745071852,c98e53191c8d693e1c1b81baf628bc22,PennController,44,0,filler,NULL,Scale,scale,Choice,oldukça iyi,1745071201424,4565,NA,,gram,undefined,,,,filler,Mesut çiftlikteki koyunları ve inekleri her gün tek tek sayıyor.,29,212,CO439307,NULL
1745071852,c98e53191c8d693e1c1b81baf628bc22,PennController,44,0,filler,NULL,PennController,42,_Trial_,End,1745071202598,4565,NA,,gram,undefined,,,,filler,Mesut çiftlikteki koyunları ve inekleri her gün tek tek sayıyor.,29,212,CO439307,NULL
1745071852,c98e53191c8d693e1c1b81baf628bc22,PennController,85,0,exp,NULL,PennController,83,_Trial_,Start,1745071202601,5015,NA,,g,undefined,,köy,şehir,exp,Emin geçen tatilde şehir ve köylük bir bölgeyi gezdi.,30,13,CO439307,NULL
1745071852,c98e53191c8d693e1c1b81baf628bc22,PennController,85,0,exp,NULL,PennController,83,_Header_,Start,1745071202601,5015,NA,,g,undefined,,köy,şehir,exp,Emin geçen tatilde şehir ve köylük bir bölgeyi gezdi.,30,13,CO439307,NULL
1745071852,c98e53191c8d693e1c1b81baf628bc22,PennController,85,0,exp,NULL,PennController,83,_Header_,End,1745071202601,5015,NA,,g,undefined,,köy,şehir,exp,Emin geçen tatilde şehir ve köylük bir bölgeyi gezdi.,30,13,CO439307,NULL
1745071852,c98e53191c8d693e1c1b81baf628bc22,PennController,85,0,exp,NULL,Text,Emin geçen tatilde şehir ve köylük bir bölgeyi gezdi.,Print,NA,1745071202603,5015,NA,,g,undefined,,köy,şehir,exp,Emin geçen tatilde şehir ve köylük bir bölgeyi gezdi.,30,13,CO439307,NULL
1745071852,c98e53191c8d693e1c1b81baf628bc22,PennController,85,0,exp,NULL,Scale,scale,Choice,oldukça kötü,1745071206578,5015,NA,,g,undefined,,köy,şehir,exp,Emin geçen tatilde şehir ve köylük bir bölgeyi gezdi.,30,13,CO439307,NULL
1745071852,c98e53191c8d693e1c1b81baf628bc22,PennController,85,0,exp,NULL,PennController,83,_Trial_,End,1745071207619,5015,NA,,g,undefined,,köy,şehir,exp,Emin geçen tatilde şehir ve köylük bir bölgeyi gezdi.,30,13,CO439307,NULL
1745071852,c98e53191c8d693e1c1b81baf628bc22,PennController,24,0,filler,NULL,PennController,22,_Trial_,Start,1745071207623,10861,NA,,ungram,undefined,,,,filler,Yavaş Hasan'ın konuşması rahatsız etmiş herkesi.,31,116,CO439307,NULL
1745071852,c98e53191c8d693e1c1b81baf628bc22,PennController,24,0,filler,NULL,PennController,22,_Header_,Start,1745071207623,10861,NA,,ungram,undefined,,,,filler,Yavaş Hasan'ın konuşması rahatsız etmiş herkesi.,31,116,CO439307,NULL
1745071852,c98e53191c8d693e1c1b81baf628bc22,PennController,24,0,filler,NULL,PennController,22,_Header_,End,1745071207624,10861,NA,,ungram,undefined,,,,filler,Yavaş Hasan'ın konuşması rahatsız etmiş herkesi.,31,116,CO439307,NULL
1745071852,c98e53191c8d693e1c1b81baf628bc22,PennController,24,0,filler,NULL,Text,Yavaş Hasan'ın konuşması rahatsız etmiş herkesi.,Print,NA,1745071207625,10861,NA,,ungram,undefined,,,,filler,Yavaş Hasan'ın konuşması rahatsız etmiş herkesi.,31,116,CO439307,NULL
1745071852,c98e53191c8d693e1c1b81baf628bc22,PennController,24,0,filler,NULL,Scale,scale,Choice,oldukça iyi,1745071212977,10861,NA,,ungram,undefined,,,,filler,Yavaş Hasan'ın konuşması rahatsız etmiş herkesi.,31,116,CO439307,NULL
1745071852,c98e53191c8d693e1c1b81baf628bc22,PennController,24,0,filler,NULL,PennController,22,_Trial_,End,1745071218489,10861,NA,,ungram,undefined,,,,filler,Yavaş Hasan'ın konuşması rahatsız etmiş herkesi.,31,116,CO439307,NULL
1745071852,c98e53191c8d693e1c1b81baf628bc22,PennController,60,0,filler,NULL,PennController,58,_Trial_,Start,1745071218492,1745071221206,1745071238701,Evet,gram,undefined,Matematikten korkulur muydu?,,,filler,Lisedeki matematik ve kimya dersleri herkesin korkulu rüyasıydı.,32,228,CO439307,NULL
1745071852,c98e53191c8d693e1c1b81baf628bc22,PennController,60,0,filler,NULL,PennController,58,_Header_,Start,1745071218492,1745071221206,1745071238701,Evet,gram,undefined,Matematikten korkulur muydu?,,,filler,Lisedeki matematik ve kimya dersleri herkesin korkulu rüyasıydı.,32,228,CO439307,NULL
1745071852,c98e53191c8d693e1c1b81baf628bc22,PennController,60,0,filler,NULL,PennController,58,_Header_,End,1745071218492,1745071221206,1745071238701,Evet,gram,undefined,Matematikten korkulur muydu?,,,filler,Lisedeki matematik ve kimya dersleri herkesin korkulu rüyasıydı.,32,228,CO439307,NULL
1745071852,c98e53191c8d693e1c1b81baf628bc22,PennController,60,0,filler,NULL,Text,Lisedeki matematik ve kimya dersleri herkesin korkulu rüyasıydı.,Print,NA,1745071218494,1745071221206,1745071238701,Evet,gram,undefined,Matematikten korkulur muydu?,,,filler,Lisedeki matematik ve kimya dersleri herkesin korkulu rüyasıydı.,32,228,CO439307,NULL
1745071852,c98e53191c8d693e1c1b81baf628bc22,PennController,60,0,filler,NULL,Scale,scale,Choice,oldukça iyi,1745071237007,1745071221206,1745071238701,Evet,gram,undefined,Matematikten korkulur muydu?,,,filler,Lisedeki matematik ve kimya dersleri herkesin korkulu rüyasıydı.,32,228,CO439307,NULL
1745071852,c98e53191c8d693e1c1b81baf628bc22,PennController,60,0,filler,NULL,Text,questionasked,Print,NA,1745071238702,1745071221206,1745071238701,Evet,gram,undefined,Matematikten korkulur muydu?,,,filler,Lisedeki matematik ve kimya dersleri herkesin korkulu rüyasıydı.,32,228,CO439307,NULL
1745071852,c98e53191c8d693e1c1b81baf628bc22,PennController,60,0,filler,NULL,Scale,answer,Choice,Evet,1745071240461,1745071221206,1745071238701,Evet,gram,undefined,Matematikten korkulur muydu?,,,filler,Lisedeki matematik ve kimya dersleri herkesin korkulu rüyasıydı.,32,228,CO439307,NULL
1745071852,c98e53191c8d693e1c1b81baf628bc22,PennController,60,0,filler,NULL,Scale,answer,Evet,checked,1745071241401,1745071221206,1745071238701,Evet,gram,undefined,Matematikten korkulur muydu?,,,filler,Lisedeki matematik ve kimya dersleri herkesin korkulu rüyasıydı.,32,228,CO439307,Status
1745071852,c98e53191c8d693e1c1b81baf628bc22,PennController,60,0,filler,NULL,Scale,answer,Hayır,unchecked,1745071241401,1745071221206,1745071238701,Evet,gram,undefined,Matematikten korkulur muydu?,,,filler,Lisedeki matematik ve kimya dersleri herkesin korkulu rüyasıydı.,32,228,CO439307,Status
1745071852,c98e53191c8d693e1c1b81baf628bc22,PennController,60,0,filler,NULL,PennController,58,_Trial_,End,1745071241401,1745071221206,1745071238701,Evet,gram,undefined,Matematikten korkulur muydu?,,,filler,Lisedeki matematik ve kimya dersleri herkesin korkulu rüyasıydı.,32,228,CO439307,NULL
1745071852,c98e53191c8d693e1c1b81baf628bc22,PennController,95,0,exp,NULL,PennController,93,_Trial_,Start,1745071241405,9201,NA,,e,undefined,,bıçak,çatal,exp,Jale geçen hafta çatal ve bıçaksız bir piknik yaptı.,33,23,CO439307,NULL
1745071852,c98e53191c8d693e1c1b81baf628bc22,PennController,95,0,exp,NULL,PennController,93,_Header_,Start,1745071241405,9201,NA,,e,undefined,,bıçak,çatal,exp,Jale geçen hafta çatal ve bıçaksız bir piknik yaptı.,33,23,CO439307,NULL
1745071852,c98e53191c8d693e1c1b81baf628bc22,PennController,95,0,exp,NULL,PennController,93,_Header_,End,1745071241406,9201,NA,,e,undefined,,bıçak,çatal,exp,Jale geçen hafta çatal ve bıçaksız bir piknik yaptı.,33,23,CO439307,NULL
1745071852,c98e53191c8d693e1c1b81baf628bc22,PennController,95,0,exp,NULL,Text,Jale geçen hafta çatal ve bıçaksız bir piknik yaptı.,Print,NA,1745071241407,9201,NA,,e,undefined,,bıçak,çatal,exp,Jale geçen hafta çatal ve bıçaksız bir piknik yaptı.,33,23,CO439307,NULL
1745071852,c98e53191c8d693e1c1b81baf628bc22,PennController,95,0,exp,NULL,Scale,scale,Choice,iyi,1745071249600,9201,NA,,e,undefined,,bıçak,çatal,exp,Jale geçen hafta çatal ve bıçaksız bir piknik yaptı.,33,23,CO439307,NULL
1745071852,c98e53191c8d693e1c1b81baf628bc22,PennController,95,0,exp,NULL,PennController,93,_Trial_,End,1745071250610,9201,NA,,e,undefined,,bıçak,çatal,exp,Jale geçen hafta çatal ve bıçaksız bir piknik yaptı.,33,23,CO439307,NULL
1745071852,c98e53191c8d693e1c1b81baf628bc22,PennController,56,0,filler,NULL,PennController,54,_Trial_,Start,1745071250613,8787,NA,,gram,undefined,,,,filler,Yeni binadaki camlı ve ferah ofis her zaman çok temiz.,34,224,CO439307,NULL
1745071852,c98e53191c8d693e1c1b81baf628bc22,PennController,56,0,filler,NULL,PennController,54,_Header_,Start,1745071250613,8787,NA,,gram,undefined,,,,filler,Yeni binadaki camlı ve ferah ofis her zaman çok temiz.,34,224,CO439307,NULL
1745071852,c98e53191c8d693e1c1b81baf628bc22,PennController,56,0,filler,NULL,PennController,54,_Header_,End,1745071250613,8787,NA,,gram,undefined,,,,filler,Yeni binadaki camlı ve ferah ofis her zaman çok temiz.,34,224,CO439307,NULL
1745071852,c98e53191c8d693e1c1b81baf628bc22,PennController,56,0,filler,NULL,Text,Yeni binadaki camlı ve ferah ofis her zaman çok temiz.,Print,NA,1745071250615,8787,NA,,gram,undefined,,,,filler,Yeni binadaki camlı ve ferah ofis her zaman çok temiz.,34,224,CO439307,NULL
1745071852,c98e53191c8d693e1c1b81baf628bc22,PennController,56,0,filler,NULL,Scale,scale,Choice,iyi,1745071258360,8787,NA,,gram,undefined,,,,filler,Yeni binadaki camlı ve ferah ofis her zaman çok temiz.,34,224,CO439307,NULL
1745071852,c98e53191c8d693e1c1b81baf628bc22,PennController,56,0,filler,NULL,PennController,54,_Trial_,End,1745071259403,8787,NA,,gram,undefined,,,,filler,Yeni binadaki camlı ve ferah ofis her zaman çok temiz.,34,224,CO439307,NULL
1745071852,c98e53191c8d693e1c1b81baf628bc22,PennController,71,0,filler,NULL,PennController,69,_Trial_,Start,1745071259406,4773,NA,,gram,undefined,,,,filler,Murat yemekhanedeki ıspanak ve pırasa yemeklerinden nefret ediyor.,35,239,CO439307,NULL
1745071852,c98e53191c8d693e1c1b81baf628bc22,PennController,71,0,filler,NULL,PennController,69,_Header_,Start,1745071259406,4773,NA,,gram,undefined,,,,filler,Murat yemekhanedeki ıspanak ve pırasa yemeklerinden nefret ediyor.,35,239,CO439307,NULL
1745071852,c98e53191c8d693e1c1b81baf628bc22,PennController,71,0,filler,NULL,PennController,69,_Header_,End,1745071259406,4773,NA,,gram,undefined,,,,filler,Murat yemekhanedeki ıspanak ve pırasa yemeklerinden nefret ediyor.,35,239,CO439307,NULL
1745071852,c98e53191c8d693e1c1b81baf628bc22,PennController,71,0,filler,NULL,Text,Murat yemekhanedeki ıspanak ve pırasa yemeklerinden nefret ediyor.,Print,NA,1745071259407,4773,NA,,gram,undefined,,,,filler,Murat yemekhanedeki ıspanak ve pırasa yemeklerinden nefret ediyor.,35,239,CO439307,NULL
1745071852,c98e53191c8d693e1c1b81baf628bc22,PennController,71,0,filler,NULL,Scale,scale,Choice,oldukça iyi,1745071263003,4773,NA,,gram,undefined,,,,filler,Murat yemekhanedeki ıspanak ve pırasa yemeklerinden nefret ediyor.,35,239,CO439307,NULL
1745071852,c98e53191c8d693e1c1b81baf628bc22,PennController,71,0,filler,NULL,PennController,69,_Trial_,End,1745071264182,4773,NA,,gram,undefined,,,,filler,Murat yemekhanedeki ıspanak ve pırasa yemeklerinden nefret ediyor.,35,239,CO439307,NULL
1745071852,c98e53191c8d693e1c1b81baf628bc22,PennController,87,0,exp,NULL,PennController,85,_Trial_,Start,1745071264185,8391,NA,,e,undefined,,bardak,sürahi,exp,Deniz misafir beklerken sürahi ve bardaksız bir sofra kurdu.,36,15,CO439307,NULL
1745071852,c98e53191c8d693e1c1b81baf628bc22,PennController,87,0,exp,NULL,PennController,85,_Header_,Start,1745071264185,8391,NA,,e,undefined,,bardak,sürahi,exp,Deniz misafir beklerken sürahi ve bardaksız bir sofra kurdu.,36,15,CO439307,NULL
1745071852,c98e53191c8d693e1c1b81baf628bc22,PennController,87,0,exp,NULL,PennController,85,_Header_,End,1745071264185,8391,NA,,e,undefined,,bardak,sürahi,exp,Deniz misafir beklerken sürahi ve bardaksız bir sofra kurdu.,36,15,CO439307,NULL
1745071852,c98e53191c8d693e1c1b81baf628bc22,PennController,87,0,exp,NULL,Text,Deniz misafir beklerken sürahi ve bardaksız bir sofra kurdu.,Print,NA,1745071264187,8391,NA,,e,undefined,,bardak,sürahi,exp,Deniz misafir beklerken sürahi ve bardaksız bir sofra kurdu.,36,15,CO439307,NULL
1745071852,c98e53191c8d693e1c1b81baf628bc22,PennController,87,0,exp,NULL,Scale,scale,Choice,kötü,1745071271527,8391,NA,,e,undefined,,bardak,sürahi,exp,Deniz misafir beklerken sürahi ve bardaksız bir sofra kurdu.,36,15,CO439307,NULL
1745071852,c98e53191c8d693e1c1b81baf628bc22,PennController,87,0,exp,NULL,PennController,85,_Trial_,End,1745071272579,8391,NA,,e,undefined,,bardak,sürahi,exp,Deniz misafir beklerken sürahi ve bardaksız bir sofra kurdu.,36,15,CO439307,NULL
1745071852,c98e53191c8d693e1c1b81baf628bc22,PennController,16,0,filler,NULL,PennController,14,_Trial_,Start,1745071272580,1745071275606,1745071282022,Hayır,ungram,undefined,Cümlede 'patron' kelimesi geçti mi?,,,filler,Binalar yapılmaya yeni başlayan çalışanlar tarafından başlandı.,37,108,CO439307,NULL
1745071852,c98e53191c8d693e1c1b81baf628bc22,PennController,16,0,filler,NULL,PennController,14,_Header_,Start,1745071272580,1745071275606,1745071282022,Hayır,ungram,undefined,Cümlede 'patron' kelimesi geçti mi?,,,filler,Binalar yapılmaya yeni başlayan çalışanlar tarafından başlandı.,37,108,CO439307,NULL
1745071852,c98e53191c8d693e1c1b81baf628bc22,PennController,16,0,filler,NULL,PennController,14,_Header_,End,1745071272580,1745071275606,1745071282022,Hayır,ungram,undefined,Cümlede 'patron' kelimesi geçti mi?,,,filler,Binalar yapılmaya yeni başlayan çalışanlar tarafından başlandı.,37,108,CO439307,NULL
1745071852,c98e53191c8d693e1c1b81baf628bc22,PennController,16,0,filler,NULL,Text,Binalar yapılmaya yeni başlayan çalışanlar tarafından başlandı.,Print,NA,1745071272581,1745071275606,1745071282022,Hayır,ungram,undefined,Cümlede 'patron' kelimesi geçti mi?,,,filler,Binalar yapılmaya yeni başlayan çalışanlar tarafından başlandı.,37,108,CO439307,NULL
1745071852,c98e53191c8d693e1c1b81baf628bc22,PennController,16,0,filler,NULL,Scale,scale,Choice,oldukça kötü,1745071280726,1745071275606,1745071282022,Hayır,ungram,undefined,Cümlede 'patron' kelimesi geçti mi?,,,filler,Binalar yapılmaya yeni başlayan çalışanlar tarafından başlandı.,37,108,CO439307,NULL
1745071852,c98e53191c8d693e1c1b81baf628bc22,PennController,16,0,filler,NULL,Text,questionasked,Print,NA,1745071282023,1745071275606,1745071282022,Hayır,ungram,undefined,Cümlede 'patron' kelimesi geçti mi?,,,filler,Binalar yapılmaya yeni başlayan çalışanlar tarafından başlandı.,37,108,CO439307,NULL
1745071852,c98e53191c8d693e1c1b81baf628bc22,PennController,16,0,filler,NULL,Scale,answer,Choice,Hayır,1745071284267,1745071275606,1745071282022,Hayır,ungram,undefined,Cümlede 'patron' kelimesi geçti mi?,,,filler,Binalar yapılmaya yeni başlayan çalışanlar tarafından başlandı.,37,108,CO439307,NULL
1745071852,c98e53191c8d693e1c1b81baf628bc22,PennController,16,0,filler,NULL,Scale,answer,Evet,unchecked,1745071285036,1745071275606,1745071282022,Hayır,ungram,undefined,Cümlede 'patron' kelimesi geçti mi?,,,filler,Binalar yapılmaya yeni başlayan çalışanlar tarafından başlandı.,37,108,CO439307,Status
1745071852,c98e53191c8d693e1c1b81baf628bc22,PennController,16,0,filler,NULL,Scale,answer,Hayır,checked,1745071285036,1745071275606,1745071282022,Hayır,ungram,undefined,Cümlede 'patron' kelimesi geçti mi?,,,filler,Binalar yapılmaya yeni başlayan çalışanlar tarafından başlandı.,37,108,CO439307,Status
1745071852,c98e53191c8d693e1c1b81baf628bc22,PennController,16,0,filler,NULL,PennController,14,_Trial_,End,1745071285036,1745071275606,1745071282022,Hayır,ungram,undefined,Cümlede 'patron' kelimesi geçti mi?,,,filler,Binalar yapılmaya yeni başlayan çalışanlar tarafından başlandı.,37,108,CO439307,NULL
1745071852,c98e53191c8d693e1c1b81baf628bc22,PennController,47,0,filler,NULL,PennController,45,_Trial_,Start,1745071285039,1745071287509,1745071300040,Hayır,gram,undefined,Cümlede 'gül' kelimesi geçti mi?,,,filler,Deniz papatyalardan ve lalerden renkli bir buket yaptırmış.,38,215,CO439307,NULL
1745071852,c98e53191c8d693e1c1b81baf628bc22,PennController,47,0,filler,NULL,PennController,45,_Header_,Start,1745071285039,1745071287509,1745071300040,Hayır,gram,undefined,Cümlede 'gül' kelimesi geçti mi?,,,filler,Deniz papatyalardan ve lalerden renkli bir buket yaptırmış.,38,215,CO439307,NULL
1745071852,c98e53191c8d693e1c1b81baf628bc22,PennController,47,0,filler,NULL,PennController,45,_Header_,End,1745071285040,1745071287509,1745071300040,Hayır,gram,undefined,Cümlede 'gül' kelimesi geçti mi?,,,filler,Deniz papatyalardan ve lalerden renkli bir buket yaptırmış.,38,215,CO439307,NULL
1745071852,c98e53191c8d693e1c1b81baf628bc22,PennController,47,0,filler,NULL,Text,Deniz papatyalardan ve lalerden renkli bir buket yaptırmış.,Print,NA,1745071285041,1745071287509,1745071300040,Hayır,gram,undefined,Cümlede 'gül' kelimesi geçti mi?,,,filler,Deniz papatyalardan ve lalerden renkli bir buket yaptırmış.,38,215,CO439307,NULL
1745071852,c98e53191c8d693e1c1b81baf628bc22,PennController,47,0,filler,NULL,Scale,scale,Choice,kötü,1745071298605,1745071287509,1745071300040,Hayır,gram,undefined,Cümlede 'gül' kelimesi geçti mi?,,,filler,Deniz papatyalardan ve lalerden renkli bir buket yaptırmış.,38,215,CO439307,NULL
1745071852,c98e53191c8d693e1c1b81baf628bc22,PennController,47,0,filler,NULL,Text,questionasked,Print,NA,1745071300041,1745071287509,1745071300040,Hayır,gram,undefined,Cümlede 'gül' kelimesi geçti mi?,,,filler,Deniz papatyalardan ve lalerden renkli bir buket yaptırmış.,38,215,CO439307,NULL
1745071852,c98e53191c8d693e1c1b81baf628bc22,PennController,47,0,filler,NULL,Scale,answer,Choice,Hayır,1745071301734,1745071287509,1745071300040,Hayır,gram,undefined,Cümlede 'gül' kelimesi geçti mi?,,,filler,Deniz papatyalardan ve lalerden renkli bir buket yaptırmış.,38,215,CO439307,NULL
1745071852,c98e53191c8d693e1c1b81baf628bc22,PennController,47,0,filler,NULL,Scale,answer,Evet,unchecked,1745071302495,1745071287509,1745071300040,Hayır,gram,undefined,Cümlede 'gül' kelimesi geçti mi?,,,filler,Deniz papatyalardan ve lalerden renkli bir buket yaptırmış.,38,215,CO439307,Status
1745071852,c98e53191c8d693e1c1b81baf628bc22,PennController,47,0,filler,NULL,Scale,answer,Hayır,checked,1745071302495,1745071287509,1745071300040,Hayır,gram,undefined,Cümlede 'gül' kelimesi geçti mi?,,,filler,Deniz papatyalardan ve lalerden renkli bir buket yaptırmış.,38,215,CO439307,Status
1745071852,c98e53191c8d693e1c1b81baf628bc22,PennController,47,0,filler,NULL,PennController,45,_Trial_,End,1745071302495,1745071287509,1745071300040,Hayır,gram,undefined,Cümlede 'gül' kelimesi geçti mi?,,,filler,Deniz papatyalardan ve lalerden renkli bir buket yaptırmış.,38,215,CO439307,NULL
1745071852,c98e53191c8d693e1c1b81baf628bc22,PennController,78,0,exp,NULL,PennController,76,_Trial_,Start,1745071302498,12850,NA,,f,undefined,,havuç,muz,exp,Ali diyetteyken muzsuz ve havuçsuz bir kek yapardı.,39,6,CO439307,NULL
1745071852,c98e53191c8d693e1c1b81baf628bc22,PennController,78,0,exp,NULL,PennController,76,_Header_,Start,1745071302498,12850,NA,,f,undefined,,havuç,muz,exp,Ali diyetteyken muzsuz ve havuçsuz bir kek yapardı.,39,6,CO439307,NULL
1745071852,c98e53191c8d693e1c1b81baf628bc22,PennController,78,0,exp,NULL,PennController,76,_Header_,End,1745071302498,12850,NA,,f,undefined,,havuç,muz,exp,Ali diyetteyken muzsuz ve havuçsuz bir kek yapardı.,39,6,CO439307,NULL
1745071852,c98e53191c8d693e1c1b81baf628bc22,PennController,78,0,exp,NULL,Text,Ali diyetteyken muzsuz ve havuçsuz bir kek yapardı.,Print,NA,1745071302499,12850,NA,,f,undefined,,havuç,muz,exp,Ali diyetteyken muzsuz ve havuçsuz bir kek yapardı.,39,6,CO439307,NULL
1745071852,c98e53191c8d693e1c1b81baf628bc22,PennController,78,0,exp,NULL,Scale,scale,Choice,iyi,1745071313664,12850,NA,,f,undefined,,havuç,muz,exp,Ali diyetteyken muzsuz ve havuçsuz bir kek yapardı.,39,6,CO439307,NULL
1745071852,c98e53191c8d693e1c1b81baf628bc22,PennController,78,0,exp,NULL,PennController,76,_Trial_,End,1745071315351,12850,NA,,f,undefined,,havuç,muz,exp,Ali diyetteyken muzsuz ve havuçsuz bir kek yapardı.,39,6,CO439307,NULL
1745071852,c98e53191c8d693e1c1b81baf628bc22,PennController,18,0,filler,NULL,PennController,16,_Trial_,Start,1745071315354,1745071319422,1745071325167,Hayır,ungram,undefined,Cümlede 'mimar' kelimesi geçti mi?,,,filler,Mühendisler herkese birbirlerinin işten attıklarını anlattılar.,40,110,CO439307,NULL
1745071852,c98e53191c8d693e1c1b81baf628bc22,PennController,18,0,filler,NULL,PennController,16,_Header_,Start,1745071315354,1745071319422,1745071325167,Hayır,ungram,undefined,Cümlede 'mimar' kelimesi geçti mi?,,,filler,Mühendisler herkese birbirlerinin işten attıklarını anlattılar.,40,110,CO439307,NULL
1745071852,c98e53191c8d693e1c1b81baf628bc22,PennController,18,0,filler,NULL,PennController,16,_Header_,End,1745071315354,1745071319422,1745071325167,Hayır,ungram,undefined,Cümlede 'mimar' kelimesi geçti mi?,,,filler,Mühendisler herkese birbirlerinin işten attıklarını anlattılar.,40,110,CO439307,NULL
1745071852,c98e53191c8d693e1c1b81baf628bc22,PennController,18,0,filler,NULL,Text,Mühendisler herkese birbirlerinin işten attıklarını anlattılar.,Print,NA,1745071315355,1745071319422,1745071325167,Hayır,ungram,undefined,Cümlede 'mimar' kelimesi geçti mi?,,,filler,Mühendisler herkese birbirlerinin işten attıklarını anlattılar.,40,110,CO439307,NULL
1745071852,c98e53191c8d693e1c1b81baf628bc22,PennController,18,0,filler,NULL,Scale,scale,Choice,oldukça kötü,1745071324020,1745071319422,1745071325167,Hayır,ungram,undefined,Cümlede 'mimar' kelimesi geçti mi?,,,filler,Mühendisler herkese birbirlerinin işten attıklarını anlattılar.,40,110,CO439307,NULL
1745071852,c98e53191c8d693e1c1b81baf628bc22,PennController,18,0,filler,NULL,Text,questionasked,Print,NA,1745071325168,1745071319422,1745071325167,Hayır,ungram,undefined,Cümlede 'mimar' kelimesi geçti mi?,,,filler,Mühendisler herkese birbirlerinin işten attıklarını anlattılar.,40,110,CO439307,NULL
1745071852,c98e53191c8d693e1c1b81baf628bc22,PennController,18,0,filler,NULL,Scale,answer,Choice,Hayır,1745071328428,1745071319422,1745071325167,Hayır,ungram,undefined,Cümlede 'mimar' kelimesi geçti mi?,,,filler,Mühendisler herkese birbirlerinin işten attıklarını anlattılar.,40,110,CO439307,NULL
1745071852,c98e53191c8d693e1c1b81baf628bc22,PennController,18,0,filler,NULL,Scale,answer,Evet,unchecked,1745071329221,1745071319422,1745071325167,Hayır,ungram,undefined,Cümlede 'mimar' kelimesi geçti mi?,,,filler,Mühendisler herkese birbirlerinin işten attıklarını anlattılar.,40,110,CO439307,Status
1745071852,c98e53191c8d693e1c1b81baf628bc22,PennController,18,0,filler,NULL,Scale,answer,Hayır,checked,1745071329221,1745071319422,1745071325167,Hayır,ungram,undefined,Cümlede 'mimar' kelimesi geçti mi?,,,filler,Mühendisler herkese birbirlerinin işten attıklarını anlattılar.,40,110,CO439307,Status
1745071852,c98e53191c8d693e1c1b81baf628bc22,PennController,18,0,filler,NULL,PennController,16,_Trial_,End,1745071329222,1745071319422,1745071325167,Hayır,ungram,undefined,Cümlede 'mimar' kelimesi geçti mi?,,,filler,Mühendisler herkese birbirlerinin işten attıklarını anlattılar.,40,110,CO439307,NULL
1745071852,c98e53191c8d693e1c1b81baf628bc22,PennController,21,0,filler,NULL,PennController,19,_Trial_,Start,1745071329225,7113,NA,,ungram,undefined,,,,filler,Kameramanın görüntüleri sosyal medyaya yüklemiş mi diye duydum.,41,113,CO439307,NULL
1745071852,c98e53191c8d693e1c1b81baf628bc22,PennController,21,0,filler,NULL,PennController,19,_Header_,Start,1745071329225,7113,NA,,ungram,undefined,,,,filler,Kameramanın görüntüleri sosyal medyaya yüklemiş mi diye duydum.,41,113,CO439307,NULL
1745071852,c98e53191c8d693e1c1b81baf628bc22,PennController,21,0,filler,NULL,PennController,19,_Header_,End,1745071329228,7113,NA,,ungram,undefined,,,,filler,Kameramanın görüntüleri sosyal medyaya yüklemiş mi diye duydum.,41,113,CO439307,NULL
1745071852,c98e53191c8d693e1c1b81baf628bc22,PennController,21,0,filler,NULL,Text,Kameramanın görüntüleri sosyal medyaya yüklemiş mi diye duydum.,Print,NA,1745071329230,7113,NA,,ungram,undefined,,,,filler,Kameramanın görüntüleri sosyal medyaya yüklemiş mi diye duydum.,41,113,CO439307,NULL
1745071852,c98e53191c8d693e1c1b81baf628bc22,PennController,21,0,filler,NULL,Scale,scale,Choice,kötü,1745071334025,7113,NA,,ungram,undefined,,,,filler,Kameramanın görüntüleri sosyal medyaya yüklemiş mi diye duydum.,41,113,CO439307,NULL
1745071852,c98e53191c8d693e1c1b81baf628bc22,PennController,21,0,filler,NULL,PennController,19,_Trial_,End,1745071336345,7113,NA,,ungram,undefined,,,,filler,Kameramanın görüntüleri sosyal medyaya yüklemiş mi diye duydum.,41,113,CO439307,NULL
1745071852,c98e53191c8d693e1c1b81baf628bc22,PennController,88,0,exp,NULL,PennController,86,_Trial_,Start,1745071336347,9201,NA,,d,undefined,,fabrika,çiftlik,exp,Okan üniversite yıllarında çiftlikli ve fabrikalı bir işletme kurdu.,42,16,CO439307,NULL
1745071852,c98e53191c8d693e1c1b81baf628bc22,PennController,88,0,exp,NULL,PennController,86,_Header_,Start,1745071336347,9201,NA,,d,undefined,,fabrika,çiftlik,exp,Okan üniversite yıllarında çiftlikli ve fabrikalı bir işletme kurdu.,42,16,CO439307,NULL
1745071852,c98e53191c8d693e1c1b81baf628bc22,PennController,88,0,exp,NULL,PennController,86,_Header_,End,1745071336348,9201,NA,,d,undefined,,fabrika,çiftlik,exp,Okan üniversite yıllarında çiftlikli ve fabrikalı bir işletme kurdu.,42,16,CO439307,NULL
1745071852,c98e53191c8d693e1c1b81baf628bc22,PennController,88,0,exp,NULL,Text,Okan üniversite yıllarında çiftlikli ve fabrikalı bir işletme kurdu.,Print,NA,1745071336349,9201,NA,,d,undefined,,fabrika,çiftlik,exp,Okan üniversite yıllarında çiftlikli ve fabrikalı bir işletme kurdu.,42,16,CO439307,NULL
1745071852,c98e53191c8d693e1c1b81baf628bc22,PennController,88,0,exp,NULL,Scale,scale,Choice,oldukça kötü,1745071342449,9201,NA,,d,undefined,,fabrika,çiftlik,exp,Okan üniversite yıllarında çiftlikli ve fabrikalı bir işletme kurdu.,42,16,CO439307,NULL
1745071852,c98e53191c8d693e1c1b81baf628bc22,PennController,88,0,exp,NULL,PennController,86,_Trial_,End,1745071345553,9201,NA,,d,undefined,,fabrika,çiftlik,exp,Okan üniversite yıllarında çiftlikli ve fabrikalı bir işletme kurdu.,42,16,CO439307,NULL
1745071852,c98e53191c8d693e1c1b81baf628bc22,PennController,64,0,filler,NULL,PennController,62,_Trial_,Start,1745071345557,8956,NA,,gram,undefined,,,,filler,Doktorlar ağız ve burun ile alınan mikropların tehlikeli olduğunu belirtiyor.,43,232,CO439307,NULL
1745071852,c98e53191c8d693e1c1b81baf628bc22,PennController,64,0,filler,NULL,PennController,62,_Header_,Start,1745071345557,8956,NA,,gram,undefined,,,,filler,Doktorlar ağız ve burun ile alınan mikropların tehlikeli olduğunu belirtiyor.,43,232,CO439307,NULL
1745071852,c98e53191c8d693e1c1b81baf628bc22,PennController,64,0,filler,NULL,PennController,62,_Header_,End,1745071345558,8956,NA,,gram,undefined,,,,filler,Doktorlar ağız ve burun ile alınan mikropların tehlikeli olduğunu belirtiyor.,43,232,CO439307,NULL
1745071852,c98e53191c8d693e1c1b81baf628bc22,PennController,64,0,filler,NULL,Text,Doktorlar ağız ve burun ile alınan mikropların tehlikeli olduğunu belirtiyor.,Print,NA,1745071345559,8956,NA,,gram,undefined,,,,filler,Doktorlar ağız ve burun ile alınan mikropların tehlikeli olduğunu belirtiyor.,43,232,CO439307,NULL
1745071852,c98e53191c8d693e1c1b81baf628bc22,PennController,64,0,filler,NULL,Scale,scale,Choice,oldukça iyi,1745071353449,8956,NA,,gram,undefined,,,,filler,Doktorlar ağız ve burun ile alınan mikropların tehlikeli olduğunu belirtiyor.,43,232,CO439307,NULL
1745071852,c98e53191c8d693e1c1b81baf628bc22,PennController,64,0,filler,NULL,PennController,62,_Trial_,End,1745071354517,8956,NA,,gram,undefined,,,,filler,Doktorlar ağız ve burun ile alınan mikropların tehlikeli olduğunu belirtiyor.,43,232,CO439307,NULL
1745071852,c98e53191c8d693e1c1b81baf628bc22,PennController,25,0,filler,NULL,PennController,23,_Trial_,Start,1745071354520,4759,NA,,ungram,undefined,,,,filler,Mimarın tecrübeli olması herkesin işini daha kolaydı.,44,117,CO439307,NULL
1745071852,c98e53191c8d693e1c1b81baf628bc22,PennController,25,0,filler,NULL,PennController,23,_Header_,Start,1745071354520,4759,NA,,ungram,undefined,,,,filler,Mimarın tecrübeli olması herkesin işini daha kolaydı.,44,117,CO439307,NULL
1745071852,c98e53191c8d693e1c1b81baf628bc22,PennController,25,0,filler,NULL,PennController,23,_Header_,End,1745071354520,4759,NA,,ungram,undefined,,,,filler,Mimarın tecrübeli olması herkesin işini daha kolaydı.,44,117,CO439307,NULL
1745071852,c98e53191c8d693e1c1b81baf628bc22,PennController,25,0,filler,NULL,Text,Mimarın tecrübeli olması herkesin işini daha kolaydı.,Print,NA,1745071354522,4759,NA,,ungram,undefined,,,,filler,Mimarın tecrübeli olması herkesin işini daha kolaydı.,44,117,CO439307,NULL
1745071852,c98e53191c8d693e1c1b81baf628bc22,PennController,25,0,filler,NULL,Scale,scale,Choice,oldukça iyi,1745071358254,4759,NA,,ungram,undefined,,,,filler,Mimarın tecrübeli olması herkesin işini daha kolaydı.,44,117,CO439307,NULL
1745071852,c98e53191c8d693e1c1b81baf628bc22,PennController,25,0,filler,NULL,PennController,23,_Trial_,End,1745071359283,4759,NA,,ungram,undefined,,,,filler,Mimarın tecrübeli olması herkesin işini daha kolaydı.,44,117,CO439307,NULL
1745071852,c98e53191c8d693e1c1b81baf628bc22,PennController,104,0,exp,NULL,PennController,102,_Trial_,Start,1745071359285,13732,NA,,d,undefined,,tavan,taban,exp,Aydan restorasyon projesi için tabanlı ve tavanlı bir plan çizdi.,45,32,CO439307,NULL
1745071852,c98e53191c8d693e1c1b81baf628bc22,PennController,104,0,exp,NULL,PennController,102,_Header_,Start,1745071359285,13732,NA,,d,undefined,,tavan,taban,exp,Aydan restorasyon projesi için tabanlı ve tavanlı bir plan çizdi.,45,32,CO439307,NULL
1745071852,c98e53191c8d693e1c1b81baf628bc22,PennController,104,0,exp,NULL,PennController,102,_Header_,End,1745071359286,13732,NA,,d,undefined,,tavan,taban,exp,Aydan restorasyon projesi için tabanlı ve tavanlı bir plan çizdi.,45,32,CO439307,NULL
1745071852,c98e53191c8d693e1c1b81baf628bc22,PennController,104,0,exp,NULL,Text,Aydan restorasyon projesi için tabanlı ve tavanlı bir plan çizdi.,Print,NA,1745071359287,13732,NA,,d,undefined,,tavan,taban,exp,Aydan restorasyon projesi için tabanlı ve tavanlı bir plan çizdi.,45,32,CO439307,NULL
1745071852,c98e53191c8d693e1c1b81baf628bc22,PennController,104,0,exp,NULL,Scale,scale,Choice,kötü sayılır,1745071371990,13732,NA,,d,undefined,,tavan,taban,exp,Aydan restorasyon projesi için tabanlı ve tavanlı bir plan çizdi.,45,32,CO439307,NULL
1745071852,c98e53191c8d693e1c1b81baf628bc22,PennController,104,0,exp,NULL,PennController,102,_Trial_,End,1745071373022,13732,NA,,d,undefined,,tavan,taban,exp,Aydan restorasyon projesi için tabanlı ve tavanlı bir plan çizdi.,45,32,CO439307,NULL
1745071852,c98e53191c8d693e1c1b81baf628bc22,PennController,51,0,filler,NULL,PennController,49,_Trial_,Start,1745071373025,5762,NA,,gram,undefined,,,,filler,Toplantı boyunca müdürlerde ve öğretmenlerde gergin bir hava vardı.,46,219,CO439307,NULL
1745071852,c98e53191c8d693e1c1b81baf628bc22,PennController,51,0,filler,NULL,PennController,49,_Header_,Start,1745071373025,5762,NA,,gram,undefined,,,,filler,Toplantı boyunca müdürlerde ve öğretmenlerde gergin bir hava vardı.,46,219,CO439307,NULL
1745071852,c98e53191c8d693e1c1b81baf628bc22,PennController,51,0,filler,NULL,PennController,49,_Header_,End,1745071373025,5762,NA,,gram,undefined,,,,filler,Toplantı boyunca müdürlerde ve öğretmenlerde gergin bir hava vardı.,46,219,CO439307,NULL
1745071852,c98e53191c8d693e1c1b81baf628bc22,PennController,51,0,filler,NULL,Text,Toplantı boyunca müdürlerde ve öğretmenlerde gergin bir hava vardı.,Print,NA,1745071373026,5762,NA,,gram,undefined,,,,filler,Toplantı boyunca müdürlerde ve öğretmenlerde gergin bir hava vardı.,46,219,CO439307,NULL
1745071852,c98e53191c8d693e1c1b81baf628bc22,PennController,51,0,filler,NULL,Scale,scale,Choice,oldukça iyi,1745071377774,5762,NA,,gram,undefined,,,,filler,Toplantı boyunca müdürlerde ve öğretmenlerde gergin bir hava vardı.,46,219,CO439307,NULL
1745071852,c98e53191c8d693e1c1b81baf628bc22,PennController,51,0,filler,NULL,PennController,49,_Trial_,End,1745071378790,5762,NA,,gram,undefined,,,,filler,Toplantı boyunca müdürlerde ve öğretmenlerde gergin bir hava vardı.,46,219,CO439307,NULL
1745071852,c98e53191c8d693e1c1b81baf628bc22,PennController,13,0,filler,NULL,PennController,11,_Trial_,Start,1745071378793,1745071382279,1745071388674,Hayır,ungram,undefined,İşten kovacak mı?,,,filler,Mehmet Ayça'ya dün akşam dedi ki birbirini işe alacak.,47,105,CO439307,NULL
1745071852,c98e53191c8d693e1c1b81baf628bc22,PennController,13,0,filler,NULL,PennController,11,_Header_,Start,1745071378793,1745071382279,1745071388674,Hayır,ungram,undefined,İşten kovacak mı?,,,filler,Mehmet Ayça'ya dün akşam dedi ki birbirini işe alacak.,47,105,CO439307,NULL
1745071852,c98e53191c8d693e1c1b81baf628bc22,PennController,13,0,filler,NULL,PennController,11,_Header_,End,1745071378793,1745071382279,1745071388674,Hayır,ungram,undefined,İşten kovacak mı?,,,filler,Mehmet Ayça'ya dün akşam dedi ki birbirini işe alacak.,47,105,CO439307,NULL
1745071852,c98e53191c8d693e1c1b81baf628bc22,PennController,13,0,filler,NULL,Text,Mehmet Ayça'ya dün akşam dedi ki birbirini işe alacak.,Print,NA,1745071378795,1745071382279,1745071388674,Hayır,ungram,undefined,İşten kovacak mı?,,,filler,Mehmet Ayça'ya dün akşam dedi ki birbirini işe alacak.,47,105,CO439307,NULL
1745071852,c98e53191c8d693e1c1b81baf628bc22,PennController,13,0,filler,NULL,Scale,scale,Choice,kötü,1745071387568,1745071382279,1745071388674,Hayır,ungram,undefined,İşten kovacak mı?,,,filler,Mehmet Ayça'ya dün akşam dedi ki birbirini işe alacak.,47,105,CO439307,NULL
1745071852,c98e53191c8d693e1c1b81baf628bc22,PennController,13,0,filler,NULL,Text,questionasked,Print,NA,1745071388676,1745071382279,1745071388674,Hayır,ungram,undefined,İşten kovacak mı?,,,filler,Mehmet Ayça'ya dün akşam dedi ki birbirini işe alacak.,47,105,CO439307,NULL
1745071852,c98e53191c8d693e1c1b81baf628bc22,PennController,13,0,filler,NULL,Scale,answer,Choice,Hayır,1745071391335,1745071382279,1745071388674,Hayır,ungram,undefined,İşten kovacak mı?,,,filler,Mehmet Ayça'ya dün akşam dedi ki birbirini işe alacak.,47,105,CO439307,NULL
1745071852,c98e53191c8d693e1c1b81baf628bc22,PennController,13,0,filler,NULL,Scale,answer,Evet,unchecked,1745071392146,1745071382279,1745071388674,Hayır,ungram,undefined,İşten kovacak mı?,,,filler,Mehmet Ayça'ya dün akşam dedi ki birbirini işe alacak.,47,105,CO439307,Status
1745071852,c98e53191c8d693e1c1b81baf628bc22,PennController,13,0,filler,NULL,Scale,answer,Hayır,checked,1745071392146,1745071382279,1745071388674,Hayır,ungram,undefined,İşten kovacak mı?,,,filler,Mehmet Ayça'ya dün akşam dedi ki birbirini işe alacak.,47,105,CO439307,Status
1745071852,c98e53191c8d693e1c1b81baf628bc22,PennController,13,0,filler,NULL,PennController,11,_Trial_,End,1745071392147,1745071382279,1745071388674,Hayır,ungram,undefined,İşten kovacak mı?,,,filler,Mehmet Ayça'ya dün akşam dedi ki birbirini işe alacak.,47,105,CO439307,NULL
1745071852,c98e53191c8d693e1c1b81baf628bc22,PennController,96,0,exp,NULL,PennController,94,_Trial_,Start,1745071392150,11552,NA,,d,undefined,,kulak,göz,exp,Neval ders çalışırken gözlü ve kulaklı bir robot gördü.,48,24,CO439307,NULL
1745071852,c98e53191c8d693e1c1b81baf628bc22,PennController,96,0,exp,NULL,PennController,94,_Header_,Start,1745071392150,11552,NA,,d,undefined,,kulak,göz,exp,Neval ders çalışırken gözlü ve kulaklı bir robot gördü.,48,24,CO439307,NULL
1745071852,c98e53191c8d693e1c1b81baf628bc22,PennController,96,0,exp,NULL,PennController,94,_Header_,End,1745071392150,11552,NA,,d,undefined,,kulak,göz,exp,Neval ders çalışırken gözlü ve kulaklı bir robot gördü.,48,24,CO439307,NULL
1745071852,c98e53191c8d693e1c1b81baf628bc22,PennController,96,0,exp,NULL,Text,Neval ders çalışırken gözlü ve kulaklı bir robot gördü.,Print,NA,1745071392152,11552,NA,,d,undefined,,kulak,göz,exp,Neval ders çalışırken gözlü ve kulaklı bir robot gördü.,48,24,CO439307,NULL
1745071852,c98e53191c8d693e1c1b81baf628bc22,PennController,96,0,exp,NULL,Scale,scale,Choice,kötü sayılır,1745071402554,11552,NA,,d,undefined,,kulak,göz,exp,Neval ders çalışırken gözlü ve kulaklı bir robot gördü.,48,24,CO439307,NULL
